condFile,condFileIm,cueFile,cueFileIm,recogFile,recogFileIm,cues,word,CORRanswer,trialtype,valArous,block,corrAnsw,words,images,trialType,ValArous,Panas_routine.thisRepN,Panas_routine.thisTrialN,Panas_routine.thisN,Panas_routine.thisIndex,skip_routine.thisRepN,skip_routine.thisTrialN,skip_routine.thisN,skip_routine.thisIndex,Group.thisRepN,Group.thisTrialN,Group.thisN,Group.thisIndex,loop_cues.thisRepN,loop_cues.thisTrialN,loop_cues.thisN,loop_cues.thisIndex,loop_cues2.thisRepN,loop_cues2.thisTrialN,loop_cues2.thisN,loop_cues2.thisIndex,instruction_wordfirst.thisRepN,instruction_wordfirst.thisTrialN,instruction_wordfirst.thisN,instruction_wordfirst.thisIndex,instruction_image_first.thisRepN,instruction_image_first.thisTrialN,instruction_image_first.thisN,instruction_image_first.thisIndex,PM_task_loop.thisRepN,PM_task_loop.thisTrialN,PM_task_loop.thisN,PM_task_loop.thisIndex,recog_task_loop.thisRepN,recog_task_loop.thisTrialN,recog_task_loop.thisN,recog_task_loop.thisIndex,trials_3.thisRepN,trials_3.thisTrialN,trials_3.thisN,trials_3.thisIndex,finalLoop.thisRepN,finalLoop.thisTrialN,finalLoop.thisN,finalLoop.thisIndex,SAMratings.thisRepN,SAMratings.thisTrialN,SAMratings.thisN,SAMratings.thisIndex,key_resp_PM.keys,key_resp_PM.rt,key_resp_PM.rtFirst,key_resp_PM.corr,key_resp_PM.lenient,key_resp_18.keys,key_resp_18.corr,key_resp_18.rt,slider_valence.response,slider_valence.rt,slider_arousal.response,slider_arousal.rt,key_resp_23.keys,key_resp_23.corr,key_resp_23.rt,participant,Group,session,date,expName,psychopyVersion,frameRate,
PM_list_1.xlsx,PM_images_list_1.xlsx,cue words.xlsx,cue images.xlsx,recog_task.xlsx,recog_task_images1.xlsx,birthday,,,,,,,,,,,,,,,,,,,0,0,0,0,0,0,0,4,,,,,,,,,,,,,,,,,,,,,,,,,,,,,,,,,,,,,,,,,,,,,,,,123,A,2,2019_Jun_30_2049,PM,3.0.6,59.7872222955992,
PM_list_1.xlsx,PM_images_list_1.xlsx,cue words.xlsx,cue images.xlsx,recog_task.xlsx,recog_task_images1.xlsx,coward,,,,,,,,,,,,,,,,,,,0,0,0,0,0,1,1,5,,,,,,,,,,,,,,,,,,,,,,,,,,,,,,,,,,,,,,,,,,,,,,,,123,A,2,2019_Jun_30_2049,PM,3.0.6,59.7872222955992,
PM_list_1.xlsx,PM_images_list_1.xlsx,cue words.xlsx,cue images.xlsx,recog_task.xlsx,recog_task_images1.xlsx,statue,,,,,,,,,,,,,,,,,,,0,0,0,0,0,2,2,3,,,,,,,,,,,,,,,,,,,,,,,,,,,,,,,,,,,,,,,,,,,,,,,,123,A,2,2019_Jun_30_2049,PM,3.0.6,59.7872222955992,
PM_list_1.xlsx,PM_images_list_1.xlsx,cue words.xlsx,cue images.xlsx,recog_task.xlsx,recog_task_images1.xlsx,startled,,,,,,,,,,,,,,,,,,,0,0,0,0,0,3,3,2,,,,,,,,,,,,,,,,,,,,,,,,,,,,,,,,,,,,,,,,,,,,,,,,123,A,2,2019_Jun_30_2049,PM,3.0.6,59.7872222955992,
PM_list_1.xlsx,PM_images_list_1.xlsx,cue words.xlsx,cue images.xlsx,recog_task.xlsx,recog_task_images1.xlsx,afraid,,,,,,,,,,,,,,,,,,,0,0,0,0,0,4,4,1,,,,,,,,,,,,,,,,,,,,,,,,,,,,,,,,,,,,,,,,,,,,,,,,123,A,2,2019_Jun_30_2049,PM,3.0.6,59.7872222955992,
PM_list_1.xlsx,PM_images_list_1.xlsx,cue words.xlsx,cue images.xlsx,recog_task.xlsx,recog_task_images1.xlsx,bunny,,,,,,,,,,,,,,,,,,,0,0,0,0,0,5,5,0,,,,,,,,,,,,,,,,,,,,,,,,,,,,,,,,,,,,,,,,,,,,,,,,123,A,2,2019_Jun_30_2049,PM,3.0.6,59.7872222955992,
PM_list_1.xlsx,PM_images_list_1.xlsx,cue words.xlsx,cue images.xlsx,recog_task.xlsx,recog_task_images1.xlsx,statue,,,,,,,,,,,,,,,,,,,0,0,0,0,,,,,0,0,0,3,,,,,,,,,,,,,,,,,,,,,,,,,,,,,,,,,,,,,,,,,,,,123,A,2,2019_Jun_30_2049,PM,3.0.6,59.7872222955992,
PM_list_1.xlsx,PM_images_list_1.xlsx,cue words.xlsx,cue images.xlsx,recog_task.xlsx,recog_task_images1.xlsx,birthday,,,,,,,,,,,,,,,,,,,0,0,0,0,,,,,0,1,1,4,,,,,,,,,,,,,,,,,,,,,,,,,,,,,,,,,,,,,,,,,,,,123,A,2,2019_Jun_30_2049,PM,3.0.6,59.7872222955992,
PM_list_1.xlsx,PM_images_list_1.xlsx,cue words.xlsx,cue images.xlsx,recog_task.xlsx,recog_task_images1.xlsx,coward,,,,,,,,,,,,,,,,,,,0,0,0,0,,,,,0,2,2,5,,,,,,,,,,,,,,,,,,,,,,,,,,,,,,,,,,,,,,,,,,,,123,A,2,2019_Jun_30_2049,PM,3.0.6,59.7872222955992,
PM_list_1.xlsx,PM_images_list_1.xlsx,cue words.xlsx,cue images.xlsx,recog_task.xlsx,recog_task_images1.xlsx,bunny,,,,,,,,,,,,,,,,,,,0,0,0,0,,,,,0,3,3,0,,,,,,,,,,,,,,,,,,,,,,,,,,,,,,,,,,,,,,,,,,,,123,A,2,2019_Jun_30_2049,PM,3.0.6,59.7872222955992,
PM_list_1.xlsx,PM_images_list_1.xlsx,cue words.xlsx,cue images.xlsx,recog_task.xlsx,recog_task_images1.xlsx,startled,,,,,,,,,,,,,,,,,,,0,0,0,0,,,,,0,4,4,2,,,,,,,,,,,,,,,,,,,,,,,,,,,,,,,,,,,,,,,,,,,,123,A,2,2019_Jun_30_2049,PM,3.0.6,59.7872222955992,
PM_list_1.xlsx,PM_images_list_1.xlsx,cue words.xlsx,cue images.xlsx,recog_task.xlsx,recog_task_images1.xlsx,afraid,,,,,,,,,,,,,,,,,,,0,0,0,0,,,,,0,5,5,1,,,,,,,,,,,,,,,,,,,,,,,,,,,,,,,,,,,,,,,,,,,,123,A,2,2019_Jun_30_2049,PM,3.0.6,59.7872222955992,
PM_list_1.xlsx,PM_images_list_1.xlsx,cue words.xlsx,cue images.xlsx,recog_task.xlsx,recog_task_images1.xlsx,,,,,,,,,,,,,,,,,,,,0,0,0,0,,,,,,,,,,,,,0,0,0,0,,,,,,,,,,,,,,,,,,,,,,,,,,,,,,,,,,,,123,A,2,2019_Jun_30_2049,PM,3.0.6,59.7872222955992,
PM_list_1.xlsx,PM_images_list_1.xlsx,cue words.xlsx,cue images.xlsx,recog_task.xlsx,recog_task_images1.xlsx,,bless,l,0,NoHit,1,,,,,,,,,,,,,,0,0,0,0,,,,,,,,,,,,,,,,,0,0,0,0,,,,,,,,,,,,,,,,,['l'],[0.3506378656020388],0.3506378656020388,1,[],,,,,,,,,,,123,A,2,2019_Jun_30_2049,PM,3.0.6,59.7872222955992,
PM_list_1.xlsx,PM_images_list_1.xlsx,cue words.xlsx,cue images.xlsx,recog_task.xlsx,recog_task_images1.xlsx,,nature,l,0,NoHit,1,,,,,,,,,,,,,,0,0,0,0,,,,,,,,,,,,,,,,,0,1,1,1,,,,,,,,,,,,,,,,,['l'],[0.4008935762103647],0.4008935762103647,1,[],,,,,,,,,,,123,A,2,2019_Jun_30_2049,PM,3.0.6,59.7872222955992,
PM_list_1.xlsx,PM_images_list_1.xlsx,cue words.xlsx,cue images.xlsx,recog_task.xlsx,recog_task_images1.xlsx,,carefree,l,0,NoHit,1,,,,,,,,,,,,,,0,0,0,0,,,,,,,,,,,,,,,,,0,2,2,2,,,,,,,,,,,,,,,,,['l'],[0.43433753785211593],0.43433753785211593,1,[],,,,,,,,,,,123,A,2,2019_Jun_30_2049,PM,3.0.6,59.7872222955992,
PM_list_1.xlsx,PM_images_list_1.xlsx,cue words.xlsx,cue images.xlsx,recog_task.xlsx,recog_task_images1.xlsx,,nature,d,1,Hit,1,,,,,,,,,,,,,,0,0,0,0,,,,,,,,,,,,,,,,,0,3,3,3,,,,,,,,,,,,,,,,,['d'],[0.3355291438056156],0.3355291438056156,1,[],,,,,,,,,,,123,A,2,2019_Jun_30_2049,PM,3.0.6,59.7872222955992,
PM_list_1.xlsx,PM_images_list_1.xlsx,cue words.xlsx,cue images.xlsx,recog_task.xlsx,recog_task_images1.xlsx,,easygoing,l,0,NoHit,1,,,,,,,,,,,,,,0,0,0,0,,,,,,,,,,,,,,,,,0,4,4,4,,,,,,,,,,,,,,,,,['l'],[0.35090050112921745],0.35090050112921745,1,[],,,,,,,,,,,123,A,2,2019_Jun_30_2049,PM,3.0.6,59.7872222955992,
PM_list_1.xlsx,PM_images_list_1.xlsx,cue words.xlsx,cue images.xlsx,recog_task.xlsx,recog_task_images1.xlsx,,pillow,l,0,NoHit,1,,,,,,,,,,,,,,0,0,0,0,,,,,,,,,,,,,,,,,0,5,5,5,,,,,,,,,,,,,,,,,['l'],[0.40208159130997956],0.40208159130997956,1,[],,,,,,,,,,,123,A,2,2019_Jun_30_2049,PM,3.0.6,59.7872222955992,
PM_list_1.xlsx,PM_images_list_1.xlsx,cue words.xlsx,cue images.xlsx,recog_task.xlsx,recog_task_images1.xlsx,,easygoing,d,1,Hit,1,,,,,,,,,,,,,,0,0,0,0,,,,,,,,,,,,,,,,,0,6,6,6,,,,,,,,,,,,,,,,,['d'],[0.3697025345172733],0.3697025345172733,1,[],,,,,,,,,,,123,A,2,2019_Jun_30_2049,PM,3.0.6,59.7872222955992,
PM_list_1.xlsx,PM_images_list_1.xlsx,cue words.xlsx,cue images.xlsx,recog_task.xlsx,recog_task_images1.xlsx,,gentle,l,0,NoHit,1,,,,,,,,,,,,,,0,0,0,0,,,,,,,,,,,,,,,,,0,7,7,7,,,,,,,,,,,,,,,,,['l'],[0.4360190206207335],0.4360190206207335,1,[],,,,,,,,,,,123,A,2,2019_Jun_30_2049,PM,3.0.6,59.7872222955992,
PM_list_1.xlsx,PM_images_list_1.xlsx,cue words.xlsx,cue images.xlsx,recog_task.xlsx,recog_task_images1.xlsx,,square,l,0,NoHit,1,,,,,,,,,,,,,,0,0,0,0,,,,,,,,,,,,,,,,,0,8,8,8,,,,,,,,,,,,,,,,,['l'],[0.4024673372041434],0.4024673372041434,1,[],,,,,,,,,,,123,A,2,2019_Jun_30_2049,PM,3.0.6,59.7872222955992,
PM_list_1.xlsx,PM_images_list_1.xlsx,cue words.xlsx,cue images.xlsx,recog_task.xlsx,recog_task_images1.xlsx,,gentle,d,1,Hit,1,,,,,,,,,,,,,,0,0,0,0,,,,,,,,,,,,,,,,,0,9,9,9,,,,,,,,,,,,,,,,,['d'],[0.720054168603383],0.720054168603383,1,[],,,,,,,,,,,123,A,2,2019_Jun_30_2049,PM,3.0.6,59.7872222955992,
PM_list_1.xlsx,PM_images_list_1.xlsx,cue words.xlsx,cue images.xlsx,recog_task.xlsx,recog_task_images1.xlsx,,birthday,h,5,PosH1,1,,,,,,,,,,,,,,0,0,0,0,,,,,,,,,,,,,,,,,0,10,10,10,,,,,,,,,,,,,,,,,['h'],[1.021863378235139],1.021863378235139,1,1,,,,,,,,,,,123,A,2,2019_Jun_30_2049,PM,3.0.6,59.7872222955992,
PM_list_1.xlsx,PM_images_list_1.xlsx,cue words.xlsx,cue images.xlsx,recog_task.xlsx,recog_task_images1.xlsx,,carefree,l,0,NoHit,1,,,,,,,,,,,,,,0,0,0,0,,,,,,,,,,,,,,,,,0,11,11,11,,,,,,,,,,,,,,,,,['l'],[0.40242219681385905],0.40242219681385905,1,[],,,,,,,,,,,123,A,2,2019_Jun_30_2049,PM,3.0.6,59.7872222955992,
PM_list_1.xlsx,PM_images_list_1.xlsx,cue words.xlsx,cue images.xlsx,recog_task.xlsx,recog_task_images1.xlsx,,tool,l,0,NoHit,1,,,,,,,,,,,,,,0,0,0,0,,,,,,,,,,,,,,,,,0,12,12,12,,,,,,,,,,,,,,,,,['l'],[0.33549426263198256],0.33549426263198256,1,[],,,,,,,,,,,123,A,2,2019_Jun_30_2049,PM,3.0.6,59.7872222955992,
PM_list_1.xlsx,PM_images_list_1.xlsx,cue words.xlsx,cue images.xlsx,recog_task.xlsx,recog_task_images1.xlsx,,bored,l,0,NoHit,1,,,,,,,,,,,,,,0,0,0,0,,,,,,,,,,,,,,,,,0,13,13,13,,,,,,,,,,,,,,,,,['l'],[0.33622266561724246],0.33622266561724246,1,[],,,,,,,,,,,123,A,2,2019_Jun_30_2049,PM,3.0.6,59.7872222955992,
PM_list_1.xlsx,PM_images_list_1.xlsx,cue words.xlsx,cue images.xlsx,recog_task.xlsx,recog_task_images1.xlsx,,tool,d,1,Hit,1,,,,,,,,,,,,,,0,0,0,0,,,,,,,,,,,,,,,,,0,14,14,14,,,,,,,,,,,,,,,,,['d'],[0.43614520865958184],0.43614520865958184,1,[],,,,,,,,,,,123,A,2,2019_Jun_30_2049,PM,3.0.6,59.7872222955992,
PM_list_1.xlsx,PM_images_list_1.xlsx,cue words.xlsx,cue images.xlsx,recog_task.xlsx,recog_task_images1.xlsx,,home,l,0,NoHit,1,,,,,,,,,,,,,,0,0,0,0,,,,,,,,,,,,,,,,,0,15,15,15,,,,,,,,,,,,,,,,,['l'],[0.36967586062382907],0.36967586062382907,1,[],,,,,,,,,,,123,A,2,2019_Jun_30_2049,PM,3.0.6,59.7872222955992,
PM_list_1.xlsx,PM_images_list_1.xlsx,cue words.xlsx,cue images.xlsx,recog_task.xlsx,recog_task_images1.xlsx,,immature,l,0,NoHit,1,,,,,,,,,,,,,,0,0,0,0,,,,,,,,,,,,,,,,,0,16,16,16,,,,,,,,,,,,,,,,,['l'],[0.385928483097814],0.385928483097814,1,[],,,,,,,,,,,123,A,2,2019_Jun_30_2049,PM,3.0.6,59.7872222955992,
PM_list_1.xlsx,PM_images_list_1.xlsx,cue words.xlsx,cue images.xlsx,recog_task.xlsx,recog_task_images1.xlsx,,home,d,1,Hit,1,,,,,,,,,,,,,,0,0,0,0,,,,,,,,,,,,,,,,,0,17,17,17,,,,,,,,,,,,,,,,,['d'],[1.1206984462914988],1.1206984462914988,1,[],,,,,,,,,,,123,A,2,2019_Jun_30_2049,PM,3.0.6,59.7872222955992,
PM_list_1.xlsx,PM_images_list_1.xlsx,cue words.xlsx,cue images.xlsx,recog_task.xlsx,recog_task_images1.xlsx,,fault,l,0,NoHit,1,,,,,,,,,,,,,,0,0,0,0,,,,,,,,,,,,,,,,,0,18,18,18,,,,,,,,,,,,,,,,,['l'],[0.3854473266983405],0.3854473266983405,1,[],,,,,,,,,,,123,A,2,2019_Jun_30_2049,PM,3.0.6,59.7872222955992,
PM_list_1.xlsx,PM_images_list_1.xlsx,cue words.xlsx,cue images.xlsx,recog_task.xlsx,recog_task_images1.xlsx,,pillow,l,0,NoHit,1,,,,,,,,,,,,,,0,0,0,0,,,,,,,,,,,,,,,,,0,19,19,19,,,,,,,,,,,,,,,,,['l'],[0.3521931602153927],0.3521931602153927,1,[],,,,,,,,,,,123,A,2,2019_Jun_30_2049,PM,3.0.6,59.7872222955992,
PM_list_1.xlsx,PM_images_list_1.xlsx,cue words.xlsx,cue images.xlsx,recog_task.xlsx,recog_task_images1.xlsx,,violin,l,0,NoHit,1,,,,,,,,,,,,,,0,0,0,0,,,,,,,,,,,,,,,,,0,20,20,20,,,,,,,,,,,,,,,,,['l'],[0.4185014389222488],0.4185014389222488,1,[],,,,,,,,,,,123,A,2,2019_Jun_30_2049,PM,3.0.6,59.7872222955992,
PM_list_1.xlsx,PM_images_list_1.xlsx,cue words.xlsx,cue images.xlsx,recog_task.xlsx,recog_task_images1.xlsx,,statue,h,3,NeuL1,1,,,,,,,,,,,,,,0,0,0,0,,,,,,,,,,,,,,,,,0,21,21,21,,,,,,,,,,,,,,,,,"['l', 'h']","[0.40258531807921827, 1.0385479130782187]",0.40258531807921827,0,1,,,,,,,,,,,123,A,2,2019_Jun_30_2049,PM,3.0.6,59.7872222955992,
PM_list_1.xlsx,PM_images_list_1.xlsx,cue words.xlsx,cue images.xlsx,recog_task.xlsx,recog_task_images1.xlsx,,violin,d,1,Hit,1,,,,,,,,,,,,,,0,0,0,0,,,,,,,,,,,,,,,,,0,22,22,22,,,,,,,,,,,,,,,,,['d'],[0.7540336603997275],0.7540336603997275,1,[],,,,,,,,,,,123,A,2,2019_Jun_30_2049,PM,3.0.6,59.7872222955992,
PM_list_1.xlsx,PM_images_list_1.xlsx,cue words.xlsx,cue images.xlsx,recog_task.xlsx,recog_task_images1.xlsx,,tense,l,0,NoHit,1,,,,,,,,,,,,,,0,0,0,0,,,,,,,,,,,,,,,,,0,23,23,23,,,,,,,,,,,,,,,,,['l'],[0.7867133117979392],0.7867133117979392,1,[],,,,,,,,,,,123,A,2,2019_Jun_30_2049,PM,3.0.6,59.7872222955992,
PM_list_1.xlsx,PM_images_list_1.xlsx,cue words.xlsx,cue images.xlsx,recog_task.xlsx,recog_task_images1.xlsx,,confident,l,0,NoHit,1,,,,,,,,,,,,,,0,0,0,0,,,,,,,,,,,,,,,,,0,24,24,24,,,,,,,,,,,,,,,,,['l'],[0.35120417340658605],0.35120417340658605,1,[],,,,,,,,,,,123,A,2,2019_Jun_30_2049,PM,3.0.6,59.7872222955992,
PM_list_1.xlsx,PM_images_list_1.xlsx,cue words.xlsx,cue images.xlsx,recog_task.xlsx,recog_task_images1.xlsx,,bomb,l,0,NoHit,1,,,,,,,,,,,,,,0,0,0,0,,,,,,,,,,,,,,,,,0,25,25,25,,,,,,,,,,,,,,,,,['l'],[0.4018599926494062],0.4018599926494062,1,[],,,,,,,,,,,123,A,2,2019_Jun_30_2049,PM,3.0.6,59.7872222955992,
PM_list_1.xlsx,PM_images_list_1.xlsx,cue words.xlsx,cue images.xlsx,recog_task.xlsx,recog_task_images1.xlsx,,confident,d,1,Hit,1,,,,,,,,,,,,,,0,0,0,0,,,,,,,,,,,,,,,,,0,26,26,26,,,,,,,,,,,,,,,,,['d'],[0.9196622672025114],0.9196622672025114,1,[],,,,,,,,,,,123,A,2,2019_Jun_30_2049,PM,3.0.6,59.7872222955992,
PM_list_1.xlsx,PM_images_list_1.xlsx,cue words.xlsx,cue images.xlsx,recog_task.xlsx,recog_task_images1.xlsx,,butterfly,l,0,NoHit,1,,,,,,,,,,,,,,0,0,0,0,,,,,,,,,,,,,,,,,0,27,27,27,,,,,,,,,,,,,,,,,['l'],[0.4168096970533952],0.4168096970533952,1,[],,,,,,,,,,,123,A,2,2019_Jun_30_2049,PM,3.0.6,59.7872222955992,
PM_list_1.xlsx,PM_images_list_1.xlsx,cue words.xlsx,cue images.xlsx,recog_task.xlsx,recog_task_images1.xlsx,,cheer,l,0,NoHit,1,,,,,,,,,,,,,,0,0,0,0,,,,,,,,,,,,,,,,,0,28,28,28,,,,,,,,,,,,,,,,,['l'],[0.5196427745977417],0.5196427745977417,1,[],,,,,,,,,,,123,A,2,2019_Jun_30_2049,PM,3.0.6,59.7872222955992,
PM_list_1.xlsx,PM_images_list_1.xlsx,cue words.xlsx,cue images.xlsx,recog_task.xlsx,recog_task_images1.xlsx,,street,l,0,NoHit,1,,,,,,,,,,,,,,0,0,0,0,,,,,,,,,,,,,,,,,0,29,29,29,,,,,,,,,,,,,,,,,['l'],[0.4693757790373638],0.4693757790373638,1,[],,,,,,,,,,,123,A,2,2019_Jun_30_2049,PM,3.0.6,59.7872222955992,
PM_list_1.xlsx,PM_images_list_1.xlsx,cue words.xlsx,cue images.xlsx,recog_task.xlsx,recog_task_images1.xlsx,,cheer,d,1,Hit,1,,,,,,,,,,,,,,0,0,0,0,,,,,,,,,,,,,,,,,0,30,30,30,,,,,,,,,,,,,,,,,['d'],[0.7200767388567328],0.7200767388567328,1,[],,,,,,,,,,,123,A,2,2019_Jun_30_2049,PM,3.0.6,59.7872222955992,
PM_list_1.xlsx,PM_images_list_1.xlsx,cue words.xlsx,cue images.xlsx,recog_task.xlsx,recog_task_images1.xlsx,,coward,h,4,NegL1,1,,,,,,,,,,,,,,0,0,0,0,,,,,,,,,,,,,,,,,0,31,31,31,,,,,,,,,,,,,,,,,"['l', 'h']","[0.6692413835553452, 1.389188856468536]",0.6692413835553452,0,1,,,,,,,,,,,123,A,2,2019_Jun_30_2049,PM,3.0.6,59.7872222955992,
PM_list_1.xlsx,PM_images_list_1.xlsx,cue words.xlsx,cue images.xlsx,recog_task.xlsx,recog_task_images1.xlsx,,taxi,l,0,NoHit,1,,,,,,,,,,,,,,0,0,0,0,,,,,,,,,,,,,,,,,0,32,32,32,,,,,,,,,,,,,,,,,['l'],[0.5200634018983692],0.5200634018983692,1,[],,,,,,,,,,,123,A,2,2019_Jun_30_2049,PM,3.0.6,59.7872222955992,
PM_list_1.xlsx,PM_images_list_1.xlsx,cue words.xlsx,cue images.xlsx,recog_task.xlsx,recog_task_images1.xlsx,,adventure,l,0,NoHit,1,,,,,,,,,,,,,,0,0,0,0,,,,,,,,,,,,,,,,,0,33,33,33,,,,,,,,,,,,,,,,,['l'],[0.43593899882398546],0.43593899882398546,1,[],,,,,,,,,,,123,A,2,2019_Jun_30_2049,PM,3.0.6,59.7872222955992,
PM_list_1.xlsx,PM_images_list_1.xlsx,cue words.xlsx,cue images.xlsx,recog_task.xlsx,recog_task_images1.xlsx,,crutch,l,0,NoHit,1,,,,,,,,,,,,,,0,0,0,0,,,,,,,,,,,,,,,,,0,34,34,34,,,,,,,,,,,,,,,,,['l'],[0.4025883957510814],0.4025883957510814,1,[],,,,,,,,,,,123,A,2,2019_Jun_30_2049,PM,3.0.6,59.7872222955992,
PM_list_1.xlsx,PM_images_list_1.xlsx,cue words.xlsx,cue images.xlsx,recog_task.xlsx,recog_task_images1.xlsx,,adventure,d,1,Hit,1,,,,,,,,,,,,,,0,0,0,0,,,,,,,,,,,,,,,,,0,35,35,35,,,,,,,,,,,,,,,,,['d'],[0.7190036267274991],0.7190036267274991,1,[],,,,,,,,,,,123,A,2,2019_Jun_30_2049,PM,3.0.6,59.7872222955992,
PM_list_1.xlsx,PM_images_list_1.xlsx,cue words.xlsx,cue images.xlsx,recog_task.xlsx,recog_task_images1.xlsx,,vest,l,0,NoHit,1,,,,,,,,,,,,,,0,0,0,0,,,,,,,,,,,,,,,,,0,36,36,36,,,,,,,,,,,,,,,,,['l'],[0.3519787428667769],0.3519787428667769,1,[],,,,,,,,,,,123,A,2,2019_Jun_30_2049,PM,3.0.6,59.7872222955992,
PM_list_1.xlsx,PM_images_list_1.xlsx,cue words.xlsx,cue images.xlsx,recog_task.xlsx,recog_task_images1.xlsx,,taxi,l,0,NoHit,1,,,,,,,,,,,,,,0,0,0,0,,,,,,,,,,,,,,,,,0,37,37,37,,,,,,,,,,,,,,,,,['l'],[0.8373003944288939],0.8373003944288939,1,[],,,,,,,,,,,123,A,2,2019_Jun_30_2049,PM,3.0.6,59.7872222955992,
PM_list_1.xlsx,PM_images_list_1.xlsx,cue words.xlsx,cue images.xlsx,recog_task.xlsx,recog_task_images1.xlsx,,brave,l,0,NoHit,1,,,,,,,,,,,,,,0,0,0,0,,,,,,,,,,,,,,,,,0,38,38,38,,,,,,,,,,,,,,,,,['l'],[0.636604820843786],0.636604820843786,1,[],,,,,,,,,,,123,A,2,2019_Jun_30_2049,PM,3.0.6,59.7872222955992,
PM_list_1.xlsx,PM_images_list_1.xlsx,cue words.xlsx,cue images.xlsx,recog_task.xlsx,recog_task_images1.xlsx,,square,l,0,NoHit,1,,,,,,,,,,,,,,0,0,0,0,,,,,,,,,,,,,,,,,0,39,39,39,,,,,,,,,,,,,,,,,['l'],[0.6371690767118707],0.6371690767118707,1,[],,,,,,,,,,,123,A,2,2019_Jun_30_2049,PM,3.0.6,59.7872222955992,
PM_list_1.xlsx,PM_images_list_1.xlsx,cue words.xlsx,cue images.xlsx,recog_task.xlsx,recog_task_images1.xlsx,,brave,d,1,Hit,1,,,,,,,,,,,,,,0,0,0,0,,,,,,,,,,,,,,,,,0,40,40,40,,,,,,,,,,,,,,,,,['d'],[0.5524506660876796],0.5524506660876796,1,[],,,,,,,,,,,123,A,2,2019_Jun_30_2049,PM,3.0.6,59.7872222955992,
PM_list_1.xlsx,PM_images_list_1.xlsx,cue words.xlsx,cue images.xlsx,recog_task.xlsx,recog_task_images1.xlsx,,unhappy,l,0,NoHit,1,,,,,,,,,,,,,,0,0,0,0,,,,,,,,,,,,,,,,,0,41,41,41,,,,,,,,,,,,,,,,,['l'],[0.9029233586043119],0.9029233586043119,1,[],,,,,,,,,,,123,A,2,2019_Jun_30_2049,PM,3.0.6,59.7872222955992,
PM_list_1.xlsx,PM_images_list_1.xlsx,cue words.xlsx,cue images.xlsx,recog_task.xlsx,recog_task_images1.xlsx,,startled,h,6,NeuH1,1,,,,,,,,,,,,,,0,0,0,0,,,,,,,,,,,,,,,,,0,42,42,42,,,,,,,,,,,,,,,,,['h'],[1.0855001615127549],1.0855001615127549,1,1,,,,,,,,,,,123,A,2,2019_Jun_30_2049,PM,3.0.6,59.7872222955992,
PM_list_1.xlsx,PM_images_list_1.xlsx,cue words.xlsx,cue images.xlsx,recog_task.xlsx,recog_task_images1.xlsx,,deformed,l,0,NoHit,1,,,,,,,,,,,,,,0,0,0,0,,,,,,,,,,,,,,,,,0,43,43,43,,,,,,,,,,,,,,,,,['l'],[0.43608980905264616],0.43608980905264616,1,[],,,,,,,,,,,123,A,2,2019_Jun_30_2049,PM,3.0.6,59.7872222955992,
PM_list_1.xlsx,PM_images_list_1.xlsx,cue words.xlsx,cue images.xlsx,recog_task.xlsx,recog_task_images1.xlsx,,rifle,l,0,NoHit,1,,,,,,,,,,,,,,0,0,0,0,,,,,,,,,,,,,,,,,0,44,44,44,,,,,,,,,,,,,,,,,['l'],[0.5028956588357687],0.5028956588357687,1,[],,,,,,,,,,,123,A,2,2019_Jun_30_2049,PM,3.0.6,59.7872222955992,
PM_list_1.xlsx,PM_images_list_1.xlsx,cue words.xlsx,cue images.xlsx,recog_task.xlsx,recog_task_images1.xlsx,,deformed,d,1,Hit,1,,,,,,,,,,,,,,0,0,0,0,,,,,,,,,,,,,,,,,0,45,45,45,,,,,,,,,,,,,,,,,['d'],[0.6532349818153307],0.6532349818153307,1,[],,,,,,,,,,,123,A,2,2019_Jun_30_2049,PM,3.0.6,59.7872222955992,
PM_list_1.xlsx,PM_images_list_1.xlsx,cue words.xlsx,cue images.xlsx,recog_task.xlsx,recog_task_images1.xlsx,,tense,l,0,NoHit,1,,,,,,,,,,,,,,0,0,0,0,,,,,,,,,,,,,,,,,0,46,46,46,,,,,,,,,,,,,,,,,['l'],[0.6355665898881853],0.6355665898881853,1,[],,,,,,,,,,,123,A,2,2019_Jun_30_2049,PM,3.0.6,59.7872222955992,
PM_list_1.xlsx,PM_images_list_1.xlsx,cue words.xlsx,cue images.xlsx,recog_task.xlsx,recog_task_images1.xlsx,,inferior,l,0,NoHit,1,,,,,,,,,,,,,,0,0,0,0,,,,,,,,,,,,,,,,,0,47,47,47,,,,,,,,,,,,,,,,,['l'],[0.5367222886998206],0.5367222886998206,1,[],,,,,,,,,,,123,A,2,2019_Jun_30_2049,PM,3.0.6,59.7872222955992,
PM_list_1.xlsx,PM_images_list_1.xlsx,cue words.xlsx,cue images.xlsx,recog_task.xlsx,recog_task_images1.xlsx,,exercise,l,0,NoHit,1,,,,,,,,,,,,,,0,0,0,0,,,,,,,,,,,,,,,,,0,48,48,48,,,,,,,,,,,,,,,,,['l'],[0.8017809968441725],0.8017809968441725,1,[],,,,,,,,,,,123,A,2,2019_Jun_30_2049,PM,3.0.6,59.7872222955992,
PM_list_1.xlsx,PM_images_list_1.xlsx,cue words.xlsx,cue images.xlsx,recog_task.xlsx,recog_task_images1.xlsx,,inferior,d,1,Hit,1,,,,,,,,,,,,,,0,0,0,0,,,,,,,,,,,,,,,,,0,49,49,49,,,,,,,,,,,,,,,,,['d'],[0.5861911185784265],0.5861911185784265,1,[],,,,,,,,,,,123,A,2,2019_Jun_30_2049,PM,3.0.6,59.7872222955992,
PM_list_1.xlsx,PM_images_list_1.xlsx,cue words.xlsx,cue images.xlsx,recog_task.xlsx,recog_task_images1.xlsx,,crutch,l,0,NoHit,1,,,,,,,,,,,,,,0,0,0,0,,,,,,,,,,,,,,,,,0,50,50,50,,,,,,,,,,,,,,,,,['l'],[0.41685278562363237],0.41685278562363237,1,[],,,,,,,,,,,123,A,2,2019_Jun_30_2049,PM,3.0.6,59.7872222955992,
PM_list_1.xlsx,PM_images_list_1.xlsx,cue words.xlsx,cue images.xlsx,recog_task.xlsx,recog_task_images1.xlsx,,afraid,h,7,NegH1,1,,,,,,,,,,,,,,0,0,0,0,,,,,,,,,,,,,,,,,0,51,51,51,,,,,,,,,,,,,,,,,['l'],[0.38585153908934444],0.38585153908934444,0,0,,,,,,,,,,,123,A,2,2019_Jun_30_2049,PM,3.0.6,59.7872222955992,
PM_list_1.xlsx,PM_images_list_1.xlsx,cue words.xlsx,cue images.xlsx,recog_task.xlsx,recog_task_images1.xlsx,,obesity,l,0,NoHit,1,,,,,,,,,,,,,,0,0,0,0,,,,,,,,,,,,,,,,,0,52,52,52,,,,,,,,,,,,,,,,,['l'],[0.3861521336948499],0.3861521336948499,1,[],,,,,,,,,,,123,A,2,2019_Jun_30_2049,PM,3.0.6,59.7872222955992,
PM_list_1.xlsx,PM_images_list_1.xlsx,cue words.xlsx,cue images.xlsx,recog_task.xlsx,recog_task_images1.xlsx,,bless,l,0,NoHit,1,,,,,,,,,,,,,,0,0,0,0,,,,,,,,,,,,,,,,,0,53,53,53,,,,,,,,,,,,,,,,,['l'],[0.5863973285304382],0.5863973285304382,1,[],,,,,,,,,,,123,A,2,2019_Jun_30_2049,PM,3.0.6,59.7872222955992,
PM_list_1.xlsx,PM_images_list_1.xlsx,cue words.xlsx,cue images.xlsx,recog_task.xlsx,recog_task_images1.xlsx,,obesity,d,1,Hit,1,,,,,,,,,,,,,,0,0,0,0,,,,,,,,,,,,,,,,,0,54,54,54,,,,,,,,,,,,,,,,,"['l', 'd']","[0.3520228575216606, 0.8370480182347819]",0.3520228575216606,0,[],,,,,,,,,,,123,A,2,2019_Jun_30_2049,PM,3.0.6,59.7872222955992,
PM_list_1.xlsx,PM_images_list_1.xlsx,cue words.xlsx,cue images.xlsx,recog_task.xlsx,recog_task_images1.xlsx,,pistol,l,0,NoHit,1,,,,,,,,,,,,,,0,0,0,0,,,,,,,,,,,,,,,,,0,55,55,55,,,,,,,,,,,,,,,,,['l'],[0.46959840366616845],0.46959840366616845,1,[],,,,,,,,,,,123,A,2,2019_Jun_30_2049,PM,3.0.6,59.7872222955992,
PM_list_1.xlsx,PM_images_list_1.xlsx,cue words.xlsx,cue images.xlsx,recog_task.xlsx,recog_task_images1.xlsx,,bored,l,0,NoHit,1,,,,,,,,,,,,,,0,0,0,0,,,,,,,,,,,,,,,,,0,56,56,56,,,,,,,,,,,,,,,,,['l'],[0.4699718385236338],0.4699718385236338,1,[],,,,,,,,,,,123,A,2,2019_Jun_30_2049,PM,3.0.6,59.7872222955992,
PM_list_1.xlsx,PM_images_list_1.xlsx,cue words.xlsx,cue images.xlsx,recog_task.xlsx,recog_task_images1.xlsx,,pity,l,0,NoHit,1,,,,,,,,,,,,,,0,0,0,0,,,,,,,,,,,,,,,,,0,57,57,57,,,,,,,,,,,,,,,,,['l'],[0.6198453939286992],0.6198453939286992,1,[],,,,,,,,,,,123,A,2,2019_Jun_30_2049,PM,3.0.6,59.7872222955992,
PM_list_1.xlsx,PM_images_list_1.xlsx,cue words.xlsx,cue images.xlsx,recog_task.xlsx,recog_task_images1.xlsx,,politeness,l,0,NoHit,1,,,,,,,,,,,,,,0,0,0,0,,,,,,,,,,,,,,,,,0,58,58,58,,,,,,,,,,,,,,,,,['l'],[0.48439934954512864],0.48439934954512864,1,[],,,,,,,,,,,123,A,2,2019_Jun_30_2049,PM,3.0.6,59.7872222955992,
PM_list_1.xlsx,PM_images_list_1.xlsx,cue words.xlsx,cue images.xlsx,recog_task.xlsx,recog_task_images1.xlsx,,pity,d,1,Hit,1,,,,,,,,,,,,,,0,0,0,0,,,,,,,,,,,,,,,,,0,59,59,59,,,,,,,,,,,,,,,,,['d'],[0.8036902338499203],0.8036902338499203,1,[],,,,,,,,,,,123,A,2,2019_Jun_30_2049,PM,3.0.6,59.7872222955992,
PM_list_1.xlsx,PM_images_list_1.xlsx,cue words.xlsx,cue images.xlsx,recog_task.xlsx,recog_task_images1.xlsx,,bunny,h,2,PosL1,1,,,,,,,,,,,,,,0,0,0,0,,,,,,,,,,,,,,,,,0,60,60,60,,,,,,,,,,,,,,,,,"['l', 'h']","[0.4004093420226127, 1.0694065566640347]",0.4004093420226127,0,1,,,,,,,,,,,123,A,2,2019_Jun_30_2049,PM,3.0.6,59.7872222955992,
PM_list_1.xlsx,PM_images_list_1.xlsx,cue words.xlsx,cue images.xlsx,recog_task.xlsx,recog_task_images1.xlsx,,beautiful,l,0,NoHit,1,,,,,,,,,,,,,,0,0,0,0,,,,,,,,,,,,,,,,,0,61,61,61,,,,,,,,,,,,,,,,,['l'],[0.351063622510992],0.351063622510992,1,[],,,,,,,,,,,123,A,2,2019_Jun_30_2049,PM,3.0.6,59.7872222955992,
PM_list_1.xlsx,PM_images_list_1.xlsx,cue words.xlsx,cue images.xlsx,recog_task.xlsx,recog_task_images1.xlsx,,street,l,0,NoHit,1,,,,,,,,,,,,,,0,0,0,0,,,,,,,,,,,,,,,,,0,62,62,62,,,,,,,,,,,,,,,,,['l'],[0.3691608487861231],0.3691608487861231,1,[],,,,,,,,,,,123,A,2,2019_Jun_30_2049,PM,3.0.6,59.7872222955992,
PM_list_1.xlsx,PM_images_list_1.xlsx,cue words.xlsx,cue images.xlsx,recog_task.xlsx,recog_task_images1.xlsx,,beautiful,d,1,Hit,1,,,,,,,,,,,,,,0,0,0,0,,,,,,,,,,,,,,,,,0,63,63,63,,,,,,,,,,,,,,,,,['d'],[0.6539828773820773],0.6539828773820773,1,[],,,,,,,,,,,123,A,2,2019_Jun_30_2049,PM,3.0.6,59.7872222955992,
PM_list_1.xlsx,PM_images_list_1.xlsx,cue words.xlsx,cue images.xlsx,recog_task.xlsx,recog_task_images1.xlsx,,aroused,l,0,NoHit,1,,,,,,,,,,,,,,0,0,0,0,,,,,,,,,,,,,,,,,0,64,64,64,,,,,,,,,,,,,,,,,['l'],[0.519717666786164],0.519717666786164,1,[],,,,,,,,,,,123,A,2,2019_Jun_30_2049,PM,3.0.6,59.7872222955992,
PM_list_1.xlsx,PM_images_list_1.xlsx,cue words.xlsx,cue images.xlsx,recog_task.xlsx,recog_task_images1.xlsx,,demon,l,0,NoHit,1,,,,,,,,,,,,,,0,0,0,0,,,,,,,,,,,,,,,,,0,65,65,65,,,,,,,,,,,,,,,,,['l'],[0.386498894658871],0.386498894658871,1,[],,,,,,,,,,,123,A,2,2019_Jun_30_2049,PM,3.0.6,59.7872222955992,
PM_list_1.xlsx,PM_images_list_1.xlsx,cue words.xlsx,cue images.xlsx,recog_task.xlsx,recog_task_images1.xlsx,,aroused,d,1,Hit,1,,,,,,,,,,,,,,0,0,0,0,,,,,,,,,,,,,,,,,0,66,66,66,,,,,,,,,,,,,,,,,['d'],[0.5351731495466083],0.5351731495466083,1,[],,,,,,,,,,,123,A,2,2019_Jun_30_2049,PM,3.0.6,59.7872222955992,
PM_list_1.xlsx,PM_images_list_1.xlsx,cue words.xlsx,cue images.xlsx,recog_task.xlsx,recog_task_images1.xlsx,,cash,l,0,NoHit,1,,,,,,,,,,,,,,0,0,0,0,,,,,,,,,,,,,,,,,0,67,67,67,,,,,,,,,,,,,,,,,['l'],[0.36894950934220105],0.36894950934220105,1,[],,,,,,,,,,,123,A,2,2019_Jun_30_2049,PM,3.0.6,59.7872222955992,
PM_list_1.xlsx,PM_images_list_1.xlsx,cue words.xlsx,cue images.xlsx,recog_task.xlsx,recog_task_images1.xlsx,,immature,l,0,NoHit,1,,,,,,,,,,,,,,0,0,0,0,,,,,,,,,,,,,,,,,0,68,68,68,,,,,,,,,,,,,,,,,['l'],[0.4199048972222954],0.4199048972222954,1,[],,,,,,,,,,,123,A,2,2019_Jun_30_2049,PM,3.0.6,59.7872222955992,
PM_list_1.xlsx,PM_images_list_1.xlsx,cue words.xlsx,cue images.xlsx,recog_task.xlsx,recog_task_images1.xlsx,,cheer,l,0,NoHit,1,,,,,,,,,,,,,,0,0,0,0,,,,,,,,,,,,,,,,,0,69,69,69,,,,,,,,,,,,,,,,,['l'],[0.46936449385248125],0.46936449385248125,1,[],,,,,,,,,,,123,A,2,2019_Jun_30_2049,PM,3.0.6,59.7872222955992,
PM_list_1.xlsx,PM_images_list_1.xlsx,cue words.xlsx,cue images.xlsx,recog_task.xlsx,recog_task_images1.xlsx,,statue,h,3,NeuL1,1,,,,,,,,,,,,,,0,0,0,0,,,,,,,,,,,,,,,,,0,70,70,70,,,,,,,,,,,,,,,,,"['l', 'h']","[0.4031926626339555, 1.4232432405697182]",0.4031926626339555,0,1,,,,,,,,,,,123,A,2,2019_Jun_30_2049,PM,3.0.6,59.7872222955992,
PM_list_1.xlsx,PM_images_list_1.xlsx,cue words.xlsx,cue images.xlsx,recog_task.xlsx,recog_task_images1.xlsx,,cheer,d,1,Hit,1,,,,,,,,,,,,,,0,0,0,0,,,,,,,,,,,,,,,,,0,71,71,71,,,,,,,,,,,,,,,,,"['l', 'd']","[0.569674834725447, 0.9543127106735483]",0.569674834725447,0,[],,,,,,,,,,,123,A,2,2019_Jun_30_2049,PM,3.0.6,59.7872222955992,
PM_list_1.xlsx,PM_images_list_1.xlsx,cue words.xlsx,cue images.xlsx,recog_task.xlsx,recog_task_images1.xlsx,,controlling,l,0,NoHit,1,,,,,,,,,,,,,,0,0,0,0,,,,,,,,,,,,,,,,,0,72,72,72,,,,,,,,,,,,,,,,,['l'],[0.6184532205807045],0.6184532205807045,1,[],,,,,,,,,,,123,A,2,2019_Jun_30_2049,PM,3.0.6,59.7872222955992,
PM_list_1.xlsx,PM_images_list_1.xlsx,cue words.xlsx,cue images.xlsx,recog_task.xlsx,recog_task_images1.xlsx,,messy,l,0,NoHit,1,,,,,,,,,,,,,,0,0,0,0,,,,,,,,,,,,,,,,,0,73,73,73,,,,,,,,,,,,,,,,,['l'],[0.35162480059079826],0.35162480059079826,1,[],,,,,,,,,,,123,A,2,2019_Jun_30_2049,PM,3.0.6,59.7872222955992,
PM_list_1.xlsx,PM_images_list_1.xlsx,cue words.xlsx,cue images.xlsx,recog_task.xlsx,recog_task_images1.xlsx,,cliff,l,0,NoHit,1,,,,,,,,,,,,,,0,0,0,0,,,,,,,,,,,,,,,,,0,74,74,74,,,,,,,,,,,,,,,,,['l'],[0.36945323611143976],0.36945323611143976,1,[],,,,,,,,,,,123,A,2,2019_Jun_30_2049,PM,3.0.6,59.7872222955992,
PM_list_1.xlsx,PM_images_list_1.xlsx,cue words.xlsx,cue images.xlsx,recog_task.xlsx,recog_task_images1.xlsx,,butterfly,l,0,NoHit,1,,,,,,,,,,,,,,0,0,0,0,,,,,,,,,,,,,,,,,0,75,75,75,,,,,,,,,,,,,,,,,['l'],[0.45166019489988685],0.45166019489988685,1,[],,,,,,,,,,,123,A,2,2019_Jun_30_2049,PM,3.0.6,59.7872222955992,
PM_list_1.xlsx,PM_images_list_1.xlsx,cue words.xlsx,cue images.xlsx,recog_task.xlsx,recog_task_images1.xlsx,,cliff,d,1,Hit,1,,,,,,,,,,,,,,0,0,0,0,,,,,,,,,,,,,,,,,0,76,76,76,,,,,,,,,,,,,,,,,['d'],[0.600968468352221],0.600968468352221,1,[],,,,,,,,,,,123,A,2,2019_Jun_30_2049,PM,3.0.6,59.7872222955992,
PM_list_1.xlsx,PM_images_list_1.xlsx,cue words.xlsx,cue images.xlsx,recog_task.xlsx,recog_task_images1.xlsx,,erotic,l,0,NoHit,1,,,,,,,,,,,,,,0,0,0,0,,,,,,,,,,,,,,,,,0,77,77,77,,,,,,,,,,,,,,,,,['l'],[0.4862829385092482],0.4862829385092482,1,[],,,,,,,,,,,123,A,2,2019_Jun_30_2049,PM,3.0.6,59.7872222955992,
PM_list_1.xlsx,PM_images_list_1.xlsx,cue words.xlsx,cue images.xlsx,recog_task.xlsx,recog_task_images1.xlsx,,vest,l,0,NoHit,1,,,,,,,,,,,,,,0,0,0,0,,,,,,,,,,,,,,,,,0,78,78,78,,,,,,,,,,,,,,,,,['l'],[0.5687207292066887],0.5687207292066887,1,[],,,,,,,,,,,123,A,2,2019_Jun_30_2049,PM,3.0.6,59.7872222955992,
PM_list_1.xlsx,PM_images_list_1.xlsx,cue words.xlsx,cue images.xlsx,recog_task.xlsx,recog_task_images1.xlsx,,dazzle,l,0,NoHit,1,,,,,,,,,,,,,,0,0,0,0,,,,,,,,,,,,,,,,,0,79,79,79,,,,,,,,,,,,,,,,,['l'],[0.4344391040503979],0.4344391040503979,1,[],,,,,,,,,,,123,A,2,2019_Jun_30_2049,PM,3.0.6,59.7872222955992,
PM_list_1.xlsx,PM_images_list_1.xlsx,cue words.xlsx,cue images.xlsx,recog_task.xlsx,recog_task_images1.xlsx,,disloyal,l,0,NoHit,1,,,,,,,,,,,,,,0,0,0,0,,,,,,,,,,,,,,,,,0,80,80,80,,,,,,,,,,,,,,,,,['l'],[0.40256069600582123],0.40256069600582123,1,[],,,,,,,,,,,123,A,2,2019_Jun_30_2049,PM,3.0.6,59.7872222955992,
PM_list_1.xlsx,PM_images_list_1.xlsx,cue words.xlsx,cue images.xlsx,recog_task.xlsx,recog_task_images1.xlsx,,dazzle,d,1,Hit,1,,,,,,,,,,,,,,0,0,0,0,,,,,,,,,,,,,,,,,0,81,81,81,,,,,,,,,,,,,,,,,['d'],[0.9032557567115873],0.9032557567115873,1,[],,,,,,,,,,,123,A,2,2019_Jun_30_2049,PM,3.0.6,59.7872222955992,
PM_list_1.xlsx,PM_images_list_1.xlsx,cue words.xlsx,cue images.xlsx,recog_task.xlsx,recog_task_images1.xlsx,,birthday,h,5,PosH1,1,,,,,,,,,,,,,,0,0,0,0,,,,,,,,,,,,,,,,,0,82,82,82,,,,,,,,,,,,,,,,,['h'],[1.0708120669005439],1.0708120669005439,1,1,,,,,,,,,,,123,A,2,2019_Jun_30_2049,PM,3.0.6,59.7872222955992,
PM_list_1.xlsx,PM_images_list_1.xlsx,cue words.xlsx,cue images.xlsx,recog_task.xlsx,recog_task_images1.xlsx,,defiant,l,0,NoHit,1,,,,,,,,,,,,,,0,0,0,0,,,,,,,,,,,,,,,,,0,83,83,83,,,,,,,,,,,,,,,,,['l'],[0.318867179332301],0.318867179332301,1,[],,,,,,,,,,,123,A,2,2019_Jun_30_2049,PM,3.0.6,59.7872222955992,
PM_list_1.xlsx,PM_images_list_1.xlsx,cue words.xlsx,cue images.xlsx,recog_task.xlsx,recog_task_images1.xlsx,,fault,l,0,NoHit,1,,,,,,,,,,,,,,0,0,0,0,,,,,,,,,,,,,,,,,0,84,84,84,,,,,,,,,,,,,,,,,['l'],[0.3853980825515464],0.3853980825515464,1,[],,,,,,,,,,,123,A,2,2019_Jun_30_2049,PM,3.0.6,59.7872222955992,
PM_list_1.xlsx,PM_images_list_1.xlsx,cue words.xlsx,cue images.xlsx,recog_task.xlsx,recog_task_images1.xlsx,,defiant,d,1,Hit,1,,,,,,,,,,,,,,0,0,0,0,,,,,,,,,,,,,,,,,0,85,85,85,,,,,,,,,,,,,,,,,['d'],[0.501236746320501],0.501236746320501,1,[],,,,,,,,,,,123,A,2,2019_Jun_30_2049,PM,3.0.6,59.7872222955992,
PM_list_1.xlsx,PM_images_list_1.xlsx,cue words.xlsx,cue images.xlsx,recog_task.xlsx,recog_task_images1.xlsx,,shotgun,l,0,NoHit,1,,,,,,,,,,,,,,0,0,0,0,,,,,,,,,,,,,,,,,0,86,86,86,,,,,,,,,,,,,,,,,['l'],[0.4680102796992287],0.4680102796992287,1,[],,,,,,,,,,,123,A,2,2019_Jun_30_2049,PM,3.0.6,59.7872222955992,
PM_list_1.xlsx,PM_images_list_1.xlsx,cue words.xlsx,cue images.xlsx,recog_task.xlsx,recog_task_images1.xlsx,,revolt,l,0,NoHit,1,,,,,,,,,,,,,,0,0,0,0,,,,,,,,,,,,,,,,,0,87,87,87,,,,,,,,,,,,,,,,,['l'],[0.41910262790042907],0.41910262790042907,1,[],,,,,,,,,,,123,A,2,2019_Jun_30_2049,PM,3.0.6,59.7872222955992,
PM_list_1.xlsx,PM_images_list_1.xlsx,cue words.xlsx,cue images.xlsx,recog_task.xlsx,recog_task_images1.xlsx,,unhappy,l,0,NoHit,1,,,,,,,,,,,,,,0,0,0,0,,,,,,,,,,,,,,,,,0,88,88,88,,,,,,,,,,,,,,,,,['l'],[0.5697999969124794],0.5697999969124794,1,[],,,,,,,,,,,123,A,2,2019_Jun_30_2049,PM,3.0.6,59.7872222955992,
PM_list_1.xlsx,PM_images_list_1.xlsx,cue words.xlsx,cue images.xlsx,recog_task.xlsx,recog_task_images1.xlsx,,revolt,d,1,Hit,1,,,,,,,,,,,,,,0,0,0,0,,,,,,,,,,,,,,,,,0,89,89,89,,,,,,,,,,,,,,,,,['d'],[0.5868487332481891],0.5868487332481891,1,[],,,,,,,,,,,123,A,2,2019_Jun_30_2049,PM,3.0.6,59.7872222955992,
PM_list_1.xlsx,PM_images_list_1.xlsx,cue words.xlsx,cue images.xlsx,recog_task.xlsx,recog_task_images1.xlsx,,car,l,0,NoHit,1,,,,,,,,,,,,,,0,0,0,0,,,,,,,,,,,,,,,,,0,90,90,90,,,,,,,,,,,,,,,,,['l'],[0.45262866315897554],0.45262866315897554,1,[],,,,,,,,,,,123,A,2,2019_Jun_30_2049,PM,3.0.6,59.7872222955992,
PM_list_1.xlsx,PM_images_list_1.xlsx,cue words.xlsx,cue images.xlsx,recog_task.xlsx,recog_task_images1.xlsx,,fight,l,0,NoHit,1,,,,,,,,,,,,,,0,0,0,0,,,,,,,,,,,,,,,,,0,91,91,91,,,,,,,,,,,,,,,,,['l'],[0.40237910812720656],0.40237910812720656,1,[],,,,,,,,,,,123,A,2,2019_Jun_30_2049,PM,3.0.6,59.7872222955992,
PM_list_1.xlsx,PM_images_list_1.xlsx,cue words.xlsx,cue images.xlsx,recog_task.xlsx,recog_task_images1.xlsx,,obsession,l,0,NoHit,1,,,,,,,,,,,,,,0,0,0,0,,,,,,,,,,,,,,,,,0,92,92,92,,,,,,,,,,,,,,,,,['l'],[0.5010818325681612],0.5010818325681612,1,[],,,,,,,,,,,123,A,2,2019_Jun_30_2049,PM,3.0.6,59.7872222955992,
PM_list_1.xlsx,PM_images_list_1.xlsx,cue words.xlsx,cue images.xlsx,recog_task.xlsx,recog_task_images1.xlsx,,startled,h,6,NeuH1,1,,,,,,,,,,,,,,0,0,0,0,,,,,,,,,,,,,,,,,0,93,93,93,,,,,,,,,,,,,,,,,['h'],[0.9543342549586669],0.9543342549586669,1,1,,,,,,,,,,,123,A,2,2019_Jun_30_2049,PM,3.0.6,59.7872222955992,
PM_list_1.xlsx,PM_images_list_1.xlsx,cue words.xlsx,cue images.xlsx,recog_task.xlsx,recog_task_images1.xlsx,,obsession,d,1,Hit,1,,,,,,,,,,,,,,0,0,0,0,,,,,,,,,,,,,,,,,0,94,94,94,,,,,,,,,,,,,,,,,"['l', 'd']","[0.4184327023103833, 0.7857089362805709]",0.4184327023103833,0,[],,,,,,,,,,,123,A,2,2019_Jun_30_2049,PM,3.0.6,59.7872222955992,
PM_list_1.xlsx,PM_images_list_1.xlsx,cue words.xlsx,cue images.xlsx,recog_task.xlsx,recog_task_images1.xlsx,,messy,l,0,NoHit,1,,,,,,,,,,,,,,0,0,0,0,,,,,,,,,,,,,,,,,0,95,95,95,,,,,,,,,,,,,,,,,['l'],[0.36777688295114785],0.36777688295114785,1,[],,,,,,,,,,,123,A,2,2019_Jun_30_2049,PM,3.0.6,59.7872222955992,
PM_list_1.xlsx,PM_images_list_1.xlsx,cue words.xlsx,cue images.xlsx,recog_task.xlsx,recog_task_images1.xlsx,,anger,l,0,NoHit,1,,,,,,,,,,,,,,0,0,0,0,,,,,,,,,,,,,,,,,0,96,96,96,,,,,,,,,,,,,,,,,['l'],[0.46939834929071367],0.46939834929071367,1,[],,,,,,,,,,,123,A,2,2019_Jun_30_2049,PM,3.0.6,59.7872222955992,
PM_list_1.xlsx,PM_images_list_1.xlsx,cue words.xlsx,cue images.xlsx,recog_task.xlsx,recog_task_images1.xlsx,,exercise,l,0,NoHit,1,,,,,,,,,,,,,,0,0,0,0,,,,,,,,,,,,,,,,,0,97,97,97,,,,,,,,,,,,,,,,,['l'],[0.40145372843835503],0.40145372843835503,1,[],,,,,,,,,,,123,A,2,2019_Jun_30_2049,PM,3.0.6,59.7872222955992,
PM_list_1.xlsx,PM_images_list_1.xlsx,cue words.xlsx,cue images.xlsx,recog_task.xlsx,recog_task_images1.xlsx,,anger,d,1,Hit,1,,,,,,,,,,,,,,0,0,0,0,,,,,,,,,,,,,,,,,0,98,98,98,,,,,,,,,,,,,,,,,['d'],[0.6704376061679795],0.6704376061679795,1,[],,,,,,,,,,,123,A,2,2019_Jun_30_2049,PM,3.0.6,59.7872222955992,
PM_list_1.xlsx,PM_images_list_1.xlsx,cue words.xlsx,cue images.xlsx,recog_task.xlsx,recog_task_images1.xlsx,,suspicious,l,0,NoHit,1,,,,,,,,,,,,,,0,0,0,0,,,,,,,,,,,,,,,,,0,99,99,99,,,,,,,,,,,,,,,,,['l'],[0.4511934012407437],0.4511934012407437,1,[],,,,,,,,,,,123,A,2,2019_Jun_30_2049,PM,3.0.6,59.7872222955992,
PM_list_1.xlsx,PM_images_list_1.xlsx,cue words.xlsx,cue images.xlsx,recog_task.xlsx,recog_task_images1.xlsx,,politeness,l,0,NoHit,1,,,,,,,,,,,,,,0,0,0,0,,,,,,,,,,,,,,,,,0,100,100,100,,,,,,,,,,,,,,,,,['l'],[0.7354162926785648],0.7354162926785648,1,[],,,,,,,,,,,123,A,2,2019_Jun_30_2049,PM,3.0.6,59.7872222955992,
PM_list_1.xlsx,PM_images_list_1.xlsx,cue words.xlsx,cue images.xlsx,recog_task.xlsx,recog_task_images1.xlsx,,suspicious,d,1,Hit,1,,,,,,,,,,,,,,0,0,0,0,,,,,,,,,,,,,,,,,0,101,101,101,,,,,,,,,,,,,,,,,['d'],[0.6022365052485839],0.6022365052485839,1,[],,,,,,,,,,,123,A,2,2019_Jun_30_2049,PM,3.0.6,59.7872222955992,
PM_list_1.xlsx,PM_images_list_1.xlsx,cue words.xlsx,cue images.xlsx,recog_task.xlsx,recog_task_images1.xlsx,,shark,l,0,NoHit,1,,,,,,,,,,,,,,0,0,0,0,,,,,,,,,,,,,,,,,0,102,102,102,,,,,,,,,,,,,,,,,['l'],[0.6031680406304076],0.6031680406304076,1,[],,,,,,,,,,,123,A,2,2019_Jun_30_2049,PM,3.0.6,59.7872222955992,
PM_list_1.xlsx,PM_images_list_1.xlsx,cue words.xlsx,cue images.xlsx,recog_task.xlsx,recog_task_images1.xlsx,,detest,l,0,NoHit,1,,,,,,,,,,,,,,0,0,0,0,,,,,,,,,,,,,,,,,0,103,103,103,,,,,,,,,,,,,,,,,['l'],[0.4026078883325681],0.4026078883325681,1,[],,,,,,,,,,,123,A,2,2019_Jun_30_2049,PM,3.0.6,59.7872222955992,
PM_list_1.xlsx,PM_images_list_1.xlsx,cue words.xlsx,cue images.xlsx,recog_task.xlsx,recog_task_images1.xlsx,,shark,d,1,Hit,1,,,,,,,,,,,,,,0,0,0,0,,,,,,,,,,,,,,,,,0,104,104,104,,,,,,,,,,,,,,,,,['d'],[0.6025791625725105],0.6025791625725105,1,[],,,,,,,,,,,123,A,2,2019_Jun_30_2049,PM,3.0.6,59.7872222955992,
PM_list_1.xlsx,PM_images_list_1.xlsx,cue words.xlsx,cue images.xlsx,recog_task.xlsx,recog_task_images1.xlsx,,bunny,h,2,PosL1,1,,,,,,,,,,,,,,0,0,0,0,,,,,,,,,,,,,,,,,0,105,105,105,,,,,,,,,,,,,,,,,['h'],[1.0045202028704807],1.0045202028704807,1,1,,,,,,,,,,,123,A,2,2019_Jun_30_2049,PM,3.0.6,59.7872222955992,
PM_list_1.xlsx,PM_images_list_1.xlsx,cue words.xlsx,cue images.xlsx,recog_task.xlsx,recog_task_images1.xlsx,,cash,l,0,NoHit,1,,,,,,,,,,,,,,0,0,0,0,,,,,,,,,,,,,,,,,0,106,106,106,,,,,,,,,,,,,,,,,['l'],[0.33571278350427747],0.33571278350427747,1,[],,,,,,,,,,,123,A,2,2019_Jun_30_2049,PM,3.0.6,59.7872222955992,
PM_list_1.xlsx,PM_images_list_1.xlsx,cue words.xlsx,cue images.xlsx,recog_task.xlsx,recog_task_images1.xlsx,,cancer,l,0,NoHit,1,,,,,,,,,,,,,,0,0,0,0,,,,,,,,,,,,,,,,,0,107,107,107,,,,,,,,,,,,,,,,,['l'],[0.45205107028596103],0.45205107028596103,1,[],,,,,,,,,,,123,A,2,2019_Jun_30_2049,PM,3.0.6,59.7872222955992,
PM_list_1.xlsx,PM_images_list_1.xlsx,cue words.xlsx,cue images.xlsx,recog_task.xlsx,recog_task_images1.xlsx,,pistol,l,0,NoHit,1,,,,,,,,,,,,,,0,0,0,0,,,,,,,,,,,,,,,,,0,108,108,108,,,,,,,,,,,,,,,,,['l'],[0.7376374091254547],0.7376374091254547,1,[],,,,,,,,,,,123,A,2,2019_Jun_30_2049,PM,3.0.6,59.7872222955992,
PM_list_1.xlsx,PM_images_list_1.xlsx,cue words.xlsx,cue images.xlsx,recog_task.xlsx,recog_task_images1.xlsx,,cancer,d,1,Hit,1,,,,,,,,,,,,,,0,0,0,0,,,,,,,,,,,,,,,,,0,109,109,109,,,,,,,,,,,,,,,,,['d'],[0.6538330930052325],0.6538330930052325,1,[],,,,,,,,,,,123,A,2,2019_Jun_30_2049,PM,3.0.6,59.7872222955992,
PM_list_1.xlsx,PM_images_list_1.xlsx,cue words.xlsx,cue images.xlsx,recog_task.xlsx,recog_task_images1.xlsx,,excitement,l,0,NoHit,1,,,,,,,,,,,,,,0,0,0,0,,,,,,,,,,,,,,,,,0,110,110,110,,,,,,,,,,,,,,,,,['l'],[0.4866163623519242],0.4866163623519242,1,[],,,,,,,,,,,123,A,2,2019_Jun_30_2049,PM,3.0.6,59.7872222955992,
PM_list_1.xlsx,PM_images_list_1.xlsx,cue words.xlsx,cue images.xlsx,recog_task.xlsx,recog_task_images1.xlsx,,bankrupt,l,0,NoHit,1,,,,,,,,,,,,,,0,0,0,0,,,,,,,,,,,,,,,,,0,111,111,111,,,,,,,,,,,,,,,,,['l'],[0.551284195156768],0.551284195156768,1,[],,,,,,,,,,,123,A,2,2019_Jun_30_2049,PM,3.0.6,59.7872222955992,
PM_list_1.xlsx,PM_images_list_1.xlsx,cue words.xlsx,cue images.xlsx,recog_task.xlsx,recog_task_images1.xlsx,,fight,l,0,NoHit,1,,,,,,,,,,,,,,0,0,0,0,,,,,,,,,,,,,,,,,0,112,112,112,,,,,,,,,,,,,,,,,['l'],[0.3516114635858685],0.3516114635858685,1,[],,,,,,,,,,,123,A,2,2019_Jun_30_2049,PM,3.0.6,59.7872222955992,
PM_list_1.xlsx,PM_images_list_1.xlsx,cue words.xlsx,cue images.xlsx,recog_task.xlsx,recog_task_images1.xlsx,,bankrupt,d,1,Hit,1,,,,,,,,,,,,,,0,0,0,0,,,,,,,,,,,,,,,,,0,113,113,113,,,,,,,,,,,,,,,,,['d'],[0.33580306451767683],0.33580306451767683,1,[],,,,,,,,,,,123,A,2,2019_Jun_30_2049,PM,3.0.6,59.7872222955992,
PM_list_1.xlsx,PM_images_list_1.xlsx,cue words.xlsx,cue images.xlsx,recog_task.xlsx,recog_task_images1.xlsx,,demon,l,0,NoHit,1,,,,,,,,,,,,,,0,0,0,0,,,,,,,,,,,,,,,,,0,114,114,114,,,,,,,,,,,,,,,,,['l'],[0.43661918363068253],0.43661918363068253,1,[],,,,,,,,,,,123,A,2,2019_Jun_30_2049,PM,3.0.6,59.7872222955992,
PM_list_1.xlsx,PM_images_list_1.xlsx,cue words.xlsx,cue images.xlsx,recog_task.xlsx,recog_task_images1.xlsx,,rifle,l,0,NoHit,1,,,,,,,,,,,,,,0,0,0,0,,,,,,,,,,,,,,,,,0,115,115,115,,,,,,,,,,,,,,,,,['l'],[0.36929627030622214],0.36929627030622214,1,[],,,,,,,,,,,123,A,2,2019_Jun_30_2049,PM,3.0.6,59.7872222955992,
PM_list_1.xlsx,PM_images_list_1.xlsx,cue words.xlsx,cue images.xlsx,recog_task.xlsx,recog_task_images1.xlsx,,noisy,l,0,NoHit,1,,,,,,,,,,,,,,0,0,0,0,,,,,,,,,,,,,,,,,0,116,116,116,,,,,,,,,,,,,,,,,['l'],[0.3859602865995839],0.3859602865995839,1,[],,,,,,,,,,,123,A,2,2019_Jun_30_2049,PM,3.0.6,59.7872222955992,
PM_list_1.xlsx,PM_images_list_1.xlsx,cue words.xlsx,cue images.xlsx,recog_task.xlsx,recog_task_images1.xlsx,,afraid,h,7,NegH1,1,,,,,,,,,,,,,,0,0,0,0,,,,,,,,,,,,,,,,,0,117,117,117,,,,,,,,,,,,,,,,,['l'],[0.4026571324793622],0.4026571324793622,0,0,,,,,,,,,,,123,A,2,2019_Jun_30_2049,PM,3.0.6,59.7872222955992,
PM_list_1.xlsx,PM_images_list_1.xlsx,cue words.xlsx,cue images.xlsx,recog_task.xlsx,recog_task_images1.xlsx,,noisy,d,1,Hit,1,,,,,,,,,,,,,,0,0,0,0,,,,,,,,,,,,,,,,,0,118,118,118,,,,,,,,,,,,,,,,,['d'],[0.45182536786887795],0.45182536786887795,1,[],,,,,,,,,,,123,A,2,2019_Jun_30_2049,PM,3.0.6,59.7872222955992,
PM_list_1.xlsx,PM_images_list_1.xlsx,cue words.xlsx,cue images.xlsx,recog_task.xlsx,recog_task_images1.xlsx,,disloyal,l,0,NoHit,1,,,,,,,,,,,,,,0,0,0,0,,,,,,,,,,,,,,,,,0,119,119,119,,,,,,,,,,,,,,,,,['l'],[0.2848292099079117],0.2848292099079117,1,[],,,,,,,,,,,123,A,2,2019_Jun_30_2049,PM,3.0.6,59.7872222955992,
PM_list_1.xlsx,PM_images_list_1.xlsx,cue words.xlsx,cue images.xlsx,recog_task.xlsx,recog_task_images1.xlsx,,controlling,l,0,NoHit,1,,,,,,,,,,,,,,0,0,0,0,,,,,,,,,,,,,,,,,0,120,120,120,,,,,,,,,,,,,,,,,['l'],[0.4017348304623738],0.4017348304623738,1,[],,,,,,,,,,,123,A,2,2019_Jun_30_2049,PM,3.0.6,59.7872222955992,
PM_list_1.xlsx,PM_images_list_1.xlsx,cue words.xlsx,cue images.xlsx,recog_task.xlsx,recog_task_images1.xlsx,,devil,l,0,NoHit,1,,,,,,,,,,,,,,0,0,0,0,,,,,,,,,,,,,,,,,0,121,121,121,,,,,,,,,,,,,,,,,['l'],[0.803610211936757],0.803610211936757,1,[],,,,,,,,,,,123,A,2,2019_Jun_30_2049,PM,3.0.6,59.7872222955992,
PM_list_1.xlsx,PM_images_list_1.xlsx,cue words.xlsx,cue images.xlsx,recog_task.xlsx,recog_task_images1.xlsx,,bomb,l,0,NoHit,1,,,,,,,,,,,,,,0,0,0,0,,,,,,,,,,,,,,,,,0,122,122,122,,,,,,,,,,,,,,,,,['l'],[0.3188948790775612],0.3188948790775612,1,[],,,,,,,,,,,123,A,2,2019_Jun_30_2049,PM,3.0.6,59.7872222955992,
PM_list_1.xlsx,PM_images_list_1.xlsx,cue words.xlsx,cue images.xlsx,recog_task.xlsx,recog_task_images1.xlsx,,devil,d,1,Hit,1,,,,,,,,,,,,,,0,0,0,0,,,,,,,,,,,,,,,,,0,123,123,123,,,,,,,,,,,,,,,,,['d'],[0.43596259492915124],0.43596259492915124,1,[],,,,,,,,,,,123,A,2,2019_Jun_30_2049,PM,3.0.6,59.7872222955992,
PM_list_1.xlsx,PM_images_list_1.xlsx,cue words.xlsx,cue images.xlsx,recog_task.xlsx,recog_task_images1.xlsx,,ambulance,l,0,NoHit,1,,,,,,,,,,,,,,0,0,0,0,,,,,,,,,,,,,,,,,0,124,124,124,,,,,,,,,,,,,,,,,['l'],[0.5009064002661034],0.5009064002661034,1,[],,,,,,,,,,,123,A,2,2019_Jun_30_2049,PM,3.0.6,59.7872222955992,
PM_list_1.xlsx,PM_images_list_1.xlsx,cue words.xlsx,cue images.xlsx,recog_task.xlsx,recog_task_images1.xlsx,,erotic,l,0,NoHit,1,,,,,,,,,,,,,,0,0,0,0,,,,,,,,,,,,,,,,,0,125,125,125,,,,,,,,,,,,,,,,,['l'],[0.33503978012595326],0.33503978012595326,1,[],,,,,,,,,,,123,A,2,2019_Jun_30_2049,PM,3.0.6,59.7872222955992,
PM_list_1.xlsx,PM_images_list_1.xlsx,cue words.xlsx,cue images.xlsx,recog_task.xlsx,recog_task_images1.xlsx,,distressed,l,0,NoHit,1,,,,,,,,,,,,,,0,0,0,0,,,,,,,,,,,,,,,,,0,126,126,126,,,,,,,,,,,,,,,,,['l'],[0.5514678348554298],0.5514678348554298,1,[],,,,,,,,,,,123,A,2,2019_Jun_30_2049,PM,3.0.6,59.7872222955992,
PM_list_1.xlsx,PM_images_list_1.xlsx,cue words.xlsx,cue images.xlsx,recog_task.xlsx,recog_task_images1.xlsx,,coward,h,4,NegL1,1,,,,,,,,,,,,,,0,0,0,0,,,,,,,,,,,,,,,,,0,127,127,127,,,,,,,,,,,,,,,,,"['l', 'h']","[0.2676265856716782, 1.2876853708876297]",0.2676265856716782,0,1,,,,,,,,,,,123,A,2,2019_Jun_30_2049,PM,3.0.6,59.7872222955992,
PM_list_1.xlsx,PM_images_list_1.xlsx,cue words.xlsx,cue images.xlsx,recog_task.xlsx,recog_task_images1.xlsx,,distressed,d,1,Hit,1,,,,,,,,,,,,,,0,0,0,0,,,,,,,,,,,,,,,,,0,128,128,128,,,,,,,,,,,,,,,,,['d'],[0.7017876653699204],0.7017876653699204,1,[],,,,,,,,,,,123,A,2,2019_Jun_30_2049,PM,3.0.6,59.7872222955992,
PM_list_1.xlsx,PM_images_list_1.xlsx,cue words.xlsx,cue images.xlsx,recog_task.xlsx,recog_task_images1.xlsx,,car,l,0,NoHit,1,,,,,,,,,,,,,,0,0,0,0,,,,,,,,,,,,,,,,,0,129,129,129,,,,,,,,,,,,,,,,,['l'],[0.36884281365200877],0.36884281365200877,1,[],,,,,,,,,,,123,A,2,2019_Jun_30_2049,PM,3.0.6,59.7872222955992,
PM_list_1.xlsx,PM_images_list_1.xlsx,cue words.xlsx,cue images.xlsx,recog_task.xlsx,recog_task_images1.xlsx,,shotgun,l,0,NoHit,1,,,,,,,,,,,,,,0,0,0,0,,,,,,,,,,,,,,,,,0,130,130,130,,,,,,,,,,,,,,,,,['l'],[0.41979307192377746],0.41979307192377746,1,[],,,,,,,,,,,123,A,2,2019_Jun_30_2049,PM,3.0.6,59.7872222955992,
PM_list_1.xlsx,PM_images_list_1.xlsx,cue words.xlsx,cue images.xlsx,recog_task.xlsx,recog_task_images1.xlsx,,detest,l,0,NoHit,1,,,,,,,,,,,,,,0,0,0,0,,,,,,,,,,,,,,,,,0,131,131,131,,,,,,,,,,,,,,,,,['l'],[0.36927472590468824],0.36927472590468824,1,[],,,,,,,,,,,123,A,2,2019_Jun_30_2049,PM,3.0.6,59.7872222955992,
PM_list_1.xlsx,PM_images_list_1.xlsx,cue words.xlsx,cue images.xlsx,recog_task.xlsx,recog_task_images1.xlsx,,confident,,,None,,l,,,,,,,,,,,,,0,0,0,0,,,,,,,,,,,,,,,,,,,,,0,0,0,9,,,,,,,,,,,,,,,,,,l,1,3.6785752024734393,,,,,,,,123,A,2,2019_Jun_30_2049,PM,3.0.6,59.7872222955992,
PM_list_1.xlsx,PM_images_list_1.xlsx,cue words.xlsx,cue images.xlsx,recog_task.xlsx,recog_task_images1.xlsx,,wolf,,,None,,l,,,,,,,,,,,,,0,0,0,0,,,,,,,,,,,,,,,,,,,,,0,1,1,1,,,,,,,,,,,,,,,,,,l,1,0.6366489353822544,,,,,,,,123,A,2,2019_Jun_30_2049,PM,3.0.6,59.7872222955992,
PM_list_1.xlsx,PM_images_list_1.xlsx,cue words.xlsx,cue images.xlsx,recog_task.xlsx,recog_task_images1.xlsx,,bunny,,,PosL1,,d,,,,,,,,,,,,,0,0,0,0,,,,,,,,,,,,,,,,,,,,,0,2,2,13,,,,,,,,,,,,,,,,,,d,1,0.5193124285433441,,,,,,,,123,A,2,2019_Jun_30_2049,PM,3.0.6,59.7872222955992,
PM_list_1.xlsx,PM_images_list_1.xlsx,cue words.xlsx,cue images.xlsx,recog_task.xlsx,recog_task_images1.xlsx,,startled,,,NeuH1,,d,,,,,,,,,,,,,0,0,0,0,,,,,,,,,,,,,,,,,,,,,0,3,3,10,,,,,,,,,,,,,,,,,,d,1,0.48596079961862415,,,,,,,,123,A,2,2019_Jun_30_2049,PM,3.0.6,59.7872222955992,
PM_list_1.xlsx,PM_images_list_1.xlsx,cue words.xlsx,cue images.xlsx,recog_task.xlsx,recog_task_images1.xlsx,,home,,,None,,l,,,,,,,,,,,,,0,0,0,0,,,,,,,,,,,,,,,,,,,,,0,4,4,11,,,,,,,,,,,,,,,,,,l,1,0.6700539119774476,,,,,,,,123,A,2,2019_Jun_30_2049,PM,3.0.6,59.7872222955992,
PM_list_1.xlsx,PM_images_list_1.xlsx,cue words.xlsx,cue images.xlsx,recog_task.xlsx,recog_task_images1.xlsx,,demon,,,None,,l,,,,,,,,,,,,,0,0,0,0,,,,,,,,,,,,,,,,,,,,,0,5,5,6,,,,,,,,,,,,,,,,,,l,1,0.7201311126118526,,,,,,,,123,A,2,2019_Jun_30_2049,PM,3.0.6,59.7872222955992,
PM_list_1.xlsx,PM_images_list_1.xlsx,cue words.xlsx,cue images.xlsx,recog_task.xlsx,recog_task_images1.xlsx,,gentle,,,None,,l,,,,,,,,,,,,,0,0,0,0,,,,,,,,,,,,,,,,,,,,,0,6,6,2,,,,,,,,,,,,,,,,,,l,1,0.7039697970030829,,,,,,,,123,A,2,2019_Jun_30_2049,PM,3.0.6,59.7872222955992,
PM_list_1.xlsx,PM_images_list_1.xlsx,cue words.xlsx,cue images.xlsx,recog_task.xlsx,recog_task_images1.xlsx,,street,,,None,,l,,,,,,,,,,,,,0,0,0,0,,,,,,,,,,,,,,,,,,,,,0,7,7,14,,,,,,,,,,,,,,,,,,l,1,0.6523619240615517,,,,,,,,123,A,2,2019_Jun_30_2049,PM,3.0.6,59.7872222955992,
PM_list_1.xlsx,PM_images_list_1.xlsx,cue words.xlsx,cue images.xlsx,recog_task.xlsx,recog_task_images1.xlsx,,afraid,,,NegH1,,d,,,,,,,,,,,,,0,0,0,0,,,,,,,,,,,,,,,,,,,,,0,8,8,5,,,,,,,,,,,,,,,,,,l,0,0.8037692295620218,,,,,,,,123,A,2,2019_Jun_30_2049,PM,3.0.6,59.7872222955992,
PM_list_1.xlsx,PM_images_list_1.xlsx,cue words.xlsx,cue images.xlsx,recog_task.xlsx,recog_task_images1.xlsx,,birthday,,,PosH1,,d,,,,,,,,,,,,,0,0,0,0,,,,,,,,,,,,,,,,,,,,,0,9,9,8,,,,,,,,,,,,,,,,,,d,1,0.5357343277428299,,,,,,,,123,A,2,2019_Jun_30_2049,PM,3.0.6,59.7872222955992,
PM_list_1.xlsx,PM_images_list_1.xlsx,cue words.xlsx,cue images.xlsx,recog_task.xlsx,recog_task_images1.xlsx,,shotgun,,,None,,l,,,,,,,,,,,,,0,0,0,0,,,,,,,,,,,,,,,,,,,,,0,10,10,7,,,,,,,,,,,,,,,,,,l,1,0.7707766726380214,,,,,,,,123,A,2,2019_Jun_30_2049,PM,3.0.6,59.7872222955992,
PM_list_1.xlsx,PM_images_list_1.xlsx,cue words.xlsx,cue images.xlsx,recog_task.xlsx,recog_task_images1.xlsx,,coward,,,NegL1,,d,,,,,,,,,,,,,0,0,0,0,,,,,,,,,,,,,,,,,,,,,0,11,11,3,,,,,,,,,,,,,,,,,,d,1,0.5199310581665486,,,,,,,,123,A,2,2019_Jun_30_2049,PM,3.0.6,59.7872222955992,
PM_list_1.xlsx,PM_images_list_1.xlsx,cue words.xlsx,cue images.xlsx,recog_task.xlsx,recog_task_images1.xlsx,,nature,,,None,,l,,,,,,,,,,,,,0,0,0,0,,,,,,,,,,,,,,,,,,,,,0,12,12,0,,,,,,,,,,,,,,,,,,d,0,0.6198823270387948,,,,,,,,123,A,2,2019_Jun_30_2049,PM,3.0.6,59.7872222955992,
PM_list_1.xlsx,PM_images_list_1.xlsx,cue words.xlsx,cue images.xlsx,recog_task.xlsx,recog_task_images1.xlsx,,statue,,,NeuL1,,d,,,,,,,,,,,,,0,0,0,0,,,,,,,,,,,,,,,,,,,,,0,13,13,15,,,,,,,,,,,,,,,,,,d,1,0.5703252679668367,,,,,,,,123,A,2,2019_Jun_30_2049,PM,3.0.6,59.7872222955992,
PM_list_1.xlsx,PM_images_list_1.xlsx,cue words.xlsx,cue images.xlsx,recog_task.xlsx,recog_task_images1.xlsx,,tense,,,None,,l,,,,,,,,,,,,,0,0,0,0,,,,,,,,,,,,,,,,,,,,,0,14,14,12,,,,,,,,,,,,,,,,,,l,1,0.7362031731754541,,,,,,,,123,A,2,2019_Jun_30_2049,PM,3.0.6,59.7872222955992,
PM_list_1.xlsx,PM_images_list_1.xlsx,cue words.xlsx,cue images.xlsx,recog_task.xlsx,recog_task_images1.xlsx,,table,,,None,,l,,,,,,,,,,,,,0,0,0,0,,,,,,,,,,,,,,,,,,,,,0,15,15,4,,,,,,,,,,,,,,,,,,l,1,0.7718538885237649,,,,,,,,123,A,2,2019_Jun_30_2049,PM,3.0.6,59.7872222955992,
PM_list_2.xlsx,PM_images_list_2.xlsx,cue words2.xlsx,cue images2.xlsx,recog_task2.xlsx,recog_task_images2.xlsx,python,,,,,,,,,,,,,,,,,,,0,1,1,1,0,0,0,3,,,,,,,,,,,,,,,,,,,,,,,,,,,,,,,,,,,,,,,,,,,,,,,,123,A,2,2019_Jun_30_2049,PM,3.0.6,59.7872222955992,
PM_list_2.xlsx,PM_images_list_2.xlsx,cue words2.xlsx,cue images2.xlsx,recog_task2.xlsx,recog_task_images2.xlsx,table,,,,,,,,,,,,,,,,,,,0,1,1,1,0,1,1,1,,,,,,,,,,,,,,,,,,,,,,,,,,,,,,,,,,,,,,,,,,,,,,,,123,A,2,2019_Jun_30_2049,PM,3.0.6,59.7872222955992,
PM_list_2.xlsx,PM_images_list_2.xlsx,cue words2.xlsx,cue images2.xlsx,recog_task2.xlsx,recog_task_images2.xlsx,divorce,,,,,,,,,,,,,,,,,,,0,1,1,1,0,2,2,2,,,,,,,,,,,,,,,,,,,,,,,,,,,,,,,,,,,,,,,,,,,,,,,,123,A,2,2019_Jun_30_2049,PM,3.0.6,59.7872222955992,
PM_list_2.xlsx,PM_images_list_2.xlsx,cue words2.xlsx,cue images2.xlsx,recog_task2.xlsx,recog_task_images2.xlsx,dollar,,,,,,,,,,,,,,,,,,,0,1,1,1,0,3,3,4,,,,,,,,,,,,,,,,,,,,,,,,,,,,,,,,,,,,,,,,,,,,,,,,123,A,2,2019_Jun_30_2049,PM,3.0.6,59.7872222955992,
PM_list_2.xlsx,PM_images_list_2.xlsx,cue words2.xlsx,cue images2.xlsx,recog_task2.xlsx,recog_task_images2.xlsx,cozy,,,,,,,,,,,,,,,,,,,0,1,1,1,0,4,4,0,,,,,,,,,,,,,,,,,,,,,,,,,,,,,,,,,,,,,,,,,,,,,,,,123,A,2,2019_Jun_30_2049,PM,3.0.6,59.7872222955992,
PM_list_2.xlsx,PM_images_list_2.xlsx,cue words2.xlsx,cue images2.xlsx,recog_task2.xlsx,recog_task_images2.xlsx,impair,,,,,,,,,,,,,,,,,,,0,1,1,1,0,5,5,5,,,,,,,,,,,,,,,,,,,,,,,,,,,,,,,,,,,,,,,,,,,,,,,,123,A,2,2019_Jun_30_2049,PM,3.0.6,59.7872222955992,
PM_list_2.xlsx,PM_images_list_2.xlsx,cue words2.xlsx,cue images2.xlsx,recog_task2.xlsx,recog_task_images2.xlsx,divorce,,,,,,,,,,,,,,,,,,,0,1,1,1,,,,,0,0,0,2,,,,,,,,,,,,,,,,,,,,,,,,,,,,,,,,,,,,,,,,,,,,123,A,2,2019_Jun_30_2049,PM,3.0.6,59.7872222955992,
PM_list_2.xlsx,PM_images_list_2.xlsx,cue words2.xlsx,cue images2.xlsx,recog_task2.xlsx,recog_task_images2.xlsx,dollar,,,,,,,,,,,,,,,,,,,0,1,1,1,,,,,0,1,1,4,,,,,,,,,,,,,,,,,,,,,,,,,,,,,,,,,,,,,,,,,,,,123,A,2,2019_Jun_30_2049,PM,3.0.6,59.7872222955992,
PM_list_2.xlsx,PM_images_list_2.xlsx,cue words2.xlsx,cue images2.xlsx,recog_task2.xlsx,recog_task_images2.xlsx,python,,,,,,,,,,,,,,,,,,,0,1,1,1,,,,,0,2,2,3,,,,,,,,,,,,,,,,,,,,,,,,,,,,,,,,,,,,,,,,,,,,123,A,2,2019_Jun_30_2049,PM,3.0.6,59.7872222955992,
PM_list_2.xlsx,PM_images_list_2.xlsx,cue words2.xlsx,cue images2.xlsx,recog_task2.xlsx,recog_task_images2.xlsx,cozy,,,,,,,,,,,,,,,,,,,0,1,1,1,,,,,0,3,3,0,,,,,,,,,,,,,,,,,,,,,,,,,,,,,,,,,,,,,,,,,,,,123,A,2,2019_Jun_30_2049,PM,3.0.6,59.7872222955992,
PM_list_2.xlsx,PM_images_list_2.xlsx,cue words2.xlsx,cue images2.xlsx,recog_task2.xlsx,recog_task_images2.xlsx,impair,,,,,,,,,,,,,,,,,,,0,1,1,1,,,,,0,4,4,5,,,,,,,,,,,,,,,,,,,,,,,,,,,,,,,,,,,,,,,,,,,,123,A,2,2019_Jun_30_2049,PM,3.0.6,59.7872222955992,
PM_list_2.xlsx,PM_images_list_2.xlsx,cue words2.xlsx,cue images2.xlsx,recog_task2.xlsx,recog_task_images2.xlsx,table,,,,,,,,,,,,,,,,,,,0,1,1,1,,,,,0,5,5,1,,,,,,,,,,,,,,,,,,,,,,,,,,,,,,,,,,,,,,,,,,,,123,A,2,2019_Jun_30_2049,PM,3.0.6,59.7872222955992,
PM_list_2.xlsx,PM_images_list_2.xlsx,cue words2.xlsx,cue images2.xlsx,recog_task2.xlsx,recog_task_images2.xlsx,,,,,,,,,,,,,,,,,,,,0,1,1,1,,,,,,,,,0,0,0,0,,,,,,,,,,,,,,,,,,,,,,,,,,,,,,,,,,,,,,,,123,A,2,2019_Jun_30_2049,PM,3.0.6,59.7872222955992,
PM_list_2.xlsx,PM_images_list_2.xlsx,cue words2.xlsx,cue images2.xlsx,recog_task2.xlsx,recog_task_images2.xlsx,,cyclone,l,0,NoHit,2,,,,,,,,,,,,,,0,1,1,1,,,,,,,,,,,,,,,,,0,0,0,0,,,,,,,,,,,,,,,,,['l'],[0.3524568215943873],0.3524568215943873,1,[],,,,,,,,,,,123,A,2,2019_Jun_30_2049,PM,3.0.6,59.7872222955992,
PM_list_2.xlsx,PM_images_list_2.xlsx,cue words2.xlsx,cue images2.xlsx,recog_task2.xlsx,recog_task_images2.xlsx,,bath,l,0,NoHit,2,,,,,,,,,,,,,,0,1,1,1,,,,,,,,,,,,,,,,,0,1,1,1,,,,,,,,,,,,,,,,,['l'],[0.4024057820206508],0.4024057820206508,1,[],,,,,,,,,,,123,A,2,2019_Jun_30_2049,PM,3.0.6,59.7872222955992,
PM_list_2.xlsx,PM_images_list_2.xlsx,cue words2.xlsx,cue images2.xlsx,recog_task2.xlsx,recog_task_images2.xlsx,,dignified,l,0,NoHit,2,,,,,,,,,,,,,,0,1,1,1,,,,,,,,,,,,,,,,,0,2,2,2,,,,,,,,,,,,,,,,,['l'],[0.33319107245188206],0.33319107245188206,1,[],,,,,,,,,,,123,A,2,2019_Jun_30_2049,PM,3.0.6,59.7872222955992,
PM_list_2.xlsx,PM_images_list_2.xlsx,cue words2.xlsx,cue images2.xlsx,recog_task2.xlsx,recog_task_images2.xlsx,,affection,d,1,Hit,2,,,,,,,,,,,,,,0,1,1,1,,,,,,,,,,,,,,,,,0,3,3,3,,,,,,,,,,,,,,,,,['l'],[0.3197320298058912],0.3197320298058912,0,[],,,,,,,,,,,123,A,2,2019_Jun_30_2049,PM,3.0.6,59.7872222955992,
PM_list_2.xlsx,PM_images_list_2.xlsx,cue words2.xlsx,cue images2.xlsx,recog_task2.xlsx,recog_task_images2.xlsx,,tower,l,0,NoHit,2,,,,,,,,,,,,,,0,1,1,1,,,,,,,,,,,,,,,,,0,4,4,4,,,,,,,,,,,,,,,,,['l'],[0.4023862895555794],0.4023862895555794,1,[],,,,,,,,,,,123,A,2,2019_Jun_30_2049,PM,3.0.6,59.7872222955992,
PM_list_2.xlsx,PM_images_list_2.xlsx,cue words2.xlsx,cue images2.xlsx,recog_task2.xlsx,recog_task_images2.xlsx,,comfort,l,0,NoHit,2,,,,,,,,,,,,,,0,1,1,1,,,,,,,,,,,,,,,,,0,5,5,5,,,,,,,,,,,,,,,,,['l'],[0.4861998389242217],0.4861998389242217,1,[],,,,,,,,,,,123,A,2,2019_Jun_30_2049,PM,3.0.6,59.7872222955992,
PM_list_2.xlsx,PM_images_list_2.xlsx,cue words2.xlsx,cue images2.xlsx,recog_task2.xlsx,recog_task_images2.xlsx,,affection,d,1,Hit,2,,,,,,,,,,,,,,0,1,1,1,,,,,,,,,,,,,,,,,0,6,6,6,,,,,,,,,,,,,,,,,['l'],[0.9365581413730979],0.9365581413730979,0,[],,,,,,,,,,,123,A,2,2019_Jun_30_2049,PM,3.0.6,59.7872222955992,
PM_list_2.xlsx,PM_images_list_2.xlsx,cue words2.xlsx,cue images2.xlsx,recog_task2.xlsx,recog_task_images2.xlsx,,stool,l,0,NoHit,2,,,,,,,,,,,,,,0,1,1,1,,,,,,,,,,,,,,,,,0,7,7,7,,,,,,,,,,,,,,,,,['l'],[0.3518433215795085],0.3518433215795085,1,[],,,,,,,,,,,123,A,2,2019_Jun_30_2049,PM,3.0.6,59.7872222955992,
PM_list_2.xlsx,PM_images_list_2.xlsx,cue words2.xlsx,cue images2.xlsx,recog_task2.xlsx,recog_task_images2.xlsx,,stiff,l,0,NoHit,2,,,,,,,,,,,,,,0,1,1,1,,,,,,,,,,,,,,,,,0,8,8,8,,,,,,,,,,,,,,,,,['l'],[0.4023852637037635],0.4023852637037635,1,[],,,,,,,,,,,123,A,2,2019_Jun_30_2049,PM,3.0.6,59.7872222955992,
PM_list_2.xlsx,PM_images_list_2.xlsx,cue words2.xlsx,cue images2.xlsx,recog_task2.xlsx,recog_task_images2.xlsx,,stool,d,1,Hit,2,,,,,,,,,,,,,,0,1,1,1,,,,,,,,,,,,,,,,,0,9,9,9,,,,,,,,,,,,,,,,,['d'],[0.3524742622394115],0.3524742622394115,1,[],,,,,,,,,,,123,A,2,2019_Jun_30_2049,PM,3.0.6,59.7872222955992,
PM_list_2.xlsx,PM_images_list_2.xlsx,cue words2.xlsx,cue images2.xlsx,recog_task2.xlsx,recog_task_images2.xlsx,,dollar,h,11,PosH2,2,,,,,,,,,,,,,,0,1,1,1,,,,,,,,,,,,,,,,,0,10,10,10,,,,,,,,,,,,,,,,,"['l', 'h']","[0.41941553342621773, 1.1888790286611766]",0.41941553342621773,0,1,,,,,,,,,,,123,A,2,2019_Jun_30_2049,PM,3.0.6,59.7872222955992,
PM_list_2.xlsx,PM_images_list_2.xlsx,cue words2.xlsx,cue images2.xlsx,recog_task2.xlsx,recog_task_images2.xlsx,,dump,l,0,NoHit,2,,,,,,,,,,,,,,0,1,1,1,,,,,,,,,,,,,,,,,0,11,11,11,,,,,,,,,,,,,,,,,['l'],[0.5530939177842811],0.5530939177842811,1,[],,,,,,,,,,,123,A,2,2019_Jun_30_2049,PM,3.0.6,59.7872222955992,
PM_list_2.xlsx,PM_images_list_2.xlsx,cue words2.xlsx,cue images2.xlsx,recog_task2.xlsx,recog_task_images2.xlsx,,kindness,l,0,NoHit,2,,,,,,,,,,,,,,0,1,1,1,,,,,,,,,,,,,,,,,0,12,12,12,,,,,,,,,,,,,,,,,['l'],[0.45339502522256225],0.45339502522256225,1,[],,,,,,,,,,,123,A,2,2019_Jun_30_2049,PM,3.0.6,59.7872222955992,
PM_list_2.xlsx,PM_images_list_2.xlsx,cue words2.xlsx,cue images2.xlsx,recog_task2.xlsx,recog_task_images2.xlsx,,easy,l,0,NoHit,2,,,,,,,,,,,,,,0,1,1,1,,,,,,,,,,,,,,,,,0,13,13,13,,,,,,,,,,,,,,,,,['l'],[0.5022247071610764],0.5022247071610764,1,[],,,,,,,,,,,123,A,2,2019_Jun_30_2049,PM,3.0.6,59.7872222955992,
PM_list_2.xlsx,PM_images_list_2.xlsx,cue words2.xlsx,cue images2.xlsx,recog_task2.xlsx,recog_task_images2.xlsx,,kindness,d,1,Hit,2,,,,,,,,,,,,,,0,1,1,1,,,,,,,,,,,,,,,,,0,14,14,14,,,,,,,,,,,,,,,,,['d'],[0.3025037575280294],0.3025037575280294,1,[],,,,,,,,,,,123,A,2,2019_Jun_30_2049,PM,3.0.6,59.7872222955992,
PM_list_2.xlsx,PM_images_list_2.xlsx,cue words2.xlsx,cue images2.xlsx,recog_task2.xlsx,recog_task_images2.xlsx,,subdued,l,0,NoHit,2,,,,,,,,,,,,,,0,1,1,1,,,,,,,,,,,,,,,,,0,15,15,15,,,,,,,,,,,,,,,,,['l'],[0.4184686094522476],0.4184686094522476,1,[],,,,,,,,,,,123,A,2,2019_Jun_30_2049,PM,3.0.6,59.7872222955992,
PM_list_2.xlsx,PM_images_list_2.xlsx,cue words2.xlsx,cue images2.xlsx,recog_task2.xlsx,recog_task_images2.xlsx,,spray,l,0,NoHit,2,,,,,,,,,,,,,,0,1,1,1,,,,,,,,,,,,,,,,,0,16,16,16,,,,,,,,,,,,,,,,,['l'],[0.6539941624505445],0.6539941624505445,1,[],,,,,,,,,,,123,A,2,2019_Jun_30_2049,PM,3.0.6,59.7872222955992,
PM_list_2.xlsx,PM_images_list_2.xlsx,cue words2.xlsx,cue images2.xlsx,recog_task2.xlsx,recog_task_images2.xlsx,,subdued,d,1,Hit,2,,,,,,,,,,,,,,0,1,1,1,,,,,,,,,,,,,,,,,0,17,17,17,,,,,,,,,,,,,,,,,['d'],[0.7036014916375279],0.7036014916375279,1,[],,,,,,,,,,,123,A,2,2019_Jun_30_2049,PM,3.0.6,59.7872222955992,
PM_list_2.xlsx,PM_images_list_2.xlsx,cue words2.xlsx,cue images2.xlsx,recog_task2.xlsx,recog_task_images2.xlsx,,stagnant,l,0,NoHit,2,,,,,,,,,,,,,,0,1,1,1,,,,,,,,,,,,,,,,,0,18,18,18,,,,,,,,,,,,,,,,,['l'],[0.43617906409781426],0.43617906409781426,1,[],,,,,,,,,,,123,A,2,2019_Jun_30_2049,PM,3.0.6,59.7872222955992,
PM_list_2.xlsx,PM_images_list_2.xlsx,cue words2.xlsx,cue images2.xlsx,recog_task2.xlsx,recog_task_images2.xlsx,,trunk,l,0,NoHit,2,,,,,,,,,,,,,,0,1,1,1,,,,,,,,,,,,,,,,,0,19,19,19,,,,,,,,,,,,,,,,,['l'],[0.4526779073057696],0.4526779073057696,1,[],,,,,,,,,,,123,A,2,2019_Jun_30_2049,PM,3.0.6,59.7872222955992,
PM_list_2.xlsx,PM_images_list_2.xlsx,cue words2.xlsx,cue images2.xlsx,recog_task2.xlsx,recog_task_images2.xlsx,,timid,l,0,NoHit,2,,,,,,,,,,,,,,0,1,1,1,,,,,,,,,,,,,,,,,0,20,20,20,,,,,,,,,,,,,,,,,['l'],[0.45262661133892834],0.45262661133892834,1,[],,,,,,,,,,,123,A,2,2019_Jun_30_2049,PM,3.0.6,59.7872222955992,
PM_list_2.xlsx,PM_images_list_2.xlsx,cue words2.xlsx,cue images2.xlsx,recog_task2.xlsx,recog_task_images2.xlsx,,impair,h,10,NegL2,2,,,,,,,,,,,,,,0,1,1,1,,,,,,,,,,,,,,,,,0,21,21,21,,,,,,,,,,,,,,,,,['l'],[0.4026991951977834],0.4026991951977834,0,0,,,,,,,,,,,123,A,2,2019_Jun_30_2049,PM,3.0.6,59.7872222955992,
PM_list_2.xlsx,PM_images_list_2.xlsx,cue words2.xlsx,cue images2.xlsx,recog_task2.xlsx,recog_task_images2.xlsx,,timid,d,1,Hit,2,,,,,,,,,,,,,,0,1,1,1,,,,,,,,,,,,,,,,,0,22,22,22,,,,,,,,,,,,,,,,,['d'],[0.5370536607224494],0.5370536607224494,1,[],,,,,,,,,,,123,A,2,2019_Jun_30_2049,PM,3.0.6,59.7872222955992,
PM_list_2.xlsx,PM_images_list_2.xlsx,cue words2.xlsx,cue images2.xlsx,recog_task2.xlsx,recog_task_images2.xlsx,,handicap,l,0,NoHit,2,,,,,,,,,,,,,,0,1,1,1,,,,,,,,,,,,,,,,,0,23,23,23,,,,,,,,,,,,,,,,,['l'],[0.41909236868377775],0.41909236868377775,1,[],,,,,,,,,,,123,A,2,2019_Jun_30_2049,PM,3.0.6,59.7872222955992,
PM_list_2.xlsx,PM_images_list_2.xlsx,cue words2.xlsx,cue images2.xlsx,recog_task2.xlsx,recog_task_images2.xlsx,,utensil,l,0,NoHit,2,,,,,,,,,,,,,,0,1,1,1,,,,,,,,,,,,,,,,,0,24,24,24,,,,,,,,,,,,,,,,,['l'],[0.4194914515828714],0.4194914515828714,1,[],,,,,,,,,,,123,A,2,2019_Jun_30_2049,PM,3.0.6,59.7872222955992,
PM_list_2.xlsx,PM_images_list_2.xlsx,cue words2.xlsx,cue images2.xlsx,recog_task2.xlsx,recog_task_images2.xlsx,,thermometer,l,0,NoHit,2,,,,,,,,,,,,,,0,1,1,1,,,,,,,,,,,,,,,,,0,25,25,25,,,,,,,,,,,,,,,,,['l'],[0.4346904542762786],0.4346904542762786,1,[],,,,,,,,,,,123,A,2,2019_Jun_30_2049,PM,3.0.6,59.7872222955992,
PM_list_2.xlsx,PM_images_list_2.xlsx,cue words2.xlsx,cue images2.xlsx,recog_task2.xlsx,recog_task_images2.xlsx,,utensil,d,1,Hit,2,,,,,,,,,,,,,,0,1,1,1,,,,,,,,,,,,,,,,,0,26,26,26,,,,,,,,,,,,,,,,,"['l', 'd']","[0.4521936731180176, 0.8869231124408543]",0.4521936731180176,0,[],,,,,,,,,,,123,A,2,2019_Jun_30_2049,PM,3.0.6,59.7872222955992,
PM_list_2.xlsx,PM_images_list_2.xlsx,cue words2.xlsx,cue images2.xlsx,recog_task2.xlsx,recog_task_images2.xlsx,,fatigued,l,0,NoHit,2,,,,,,,,,,,,,,0,1,1,1,,,,,,,,,,,,,,,,,0,27,27,27,,,,,,,,,,,,,,,,,['l'],[0.5193668022984639],0.5193668022984639,1,[],,,,,,,,,,,123,A,2,2019_Jun_30_2049,PM,3.0.6,59.7872222955992,
PM_list_2.xlsx,PM_images_list_2.xlsx,cue words2.xlsx,cue images2.xlsx,recog_task2.xlsx,recog_task_images2.xlsx,,desire,l,0,NoHit,2,,,,,,,,,,,,,,0,1,1,1,,,,,,,,,,,,,,,,,0,28,28,28,,,,,,,,,,,,,,,,,['l'],[0.5699241332476959],0.5699241332476959,1,[],,,,,,,,,,,123,A,2,2019_Jun_30_2049,PM,3.0.6,59.7872222955992,
PM_list_2.xlsx,PM_images_list_2.xlsx,cue words2.xlsx,cue images2.xlsx,recog_task2.xlsx,recog_task_images2.xlsx,,discomfort,l,0,NoHit,2,,,,,,,,,,,,,,0,1,1,1,,,,,,,,,,,,,,,,,0,29,29,29,,,,,,,,,,,,,,,,,['l'],[1.0702580701326951],1.0702580701326951,1,[],,,,,,,,,,,123,A,2,2019_Jun_30_2049,PM,3.0.6,59.7872222955992,
PM_list_2.xlsx,PM_images_list_2.xlsx,cue words2.xlsx,cue images2.xlsx,recog_task2.xlsx,recog_task_images2.xlsx,,desire,d,1,Hit,2,,,,,,,,,,,,,,0,1,1,1,,,,,,,,,,,,,,,,,0,30,30,30,,,,,,,,,,,,,,,,,['d'],[0.5537884655641392],0.5537884655641392,1,[],,,,,,,,,,,123,A,2,2019_Jun_30_2049,PM,3.0.6,59.7872222955992,
PM_list_2.xlsx,PM_images_list_2.xlsx,cue words2.xlsx,cue images2.xlsx,recog_task2.xlsx,recog_task_images2.xlsx,,table,h,9,NeuL2,2,,,,,,,,,,,,,,0,1,1,1,,,,,,,,,,,,,,,,,0,31,31,31,,,,,,,,,,,,,,,,,['h'],[1.2883840223075822],1.2883840223075822,1,1,,,,,,,,,,,123,A,2,2019_Jun_30_2049,PM,3.0.6,59.7872222955992,
PM_list_2.xlsx,PM_images_list_2.xlsx,cue words2.xlsx,cue images2.xlsx,recog_task2.xlsx,recog_task_images2.xlsx,,bath,l,0,NoHit,2,,,,,,,,,,,,,,0,1,1,1,,,,,,,,,,,,,,,,,0,32,32,32,,,,,,,,,,,,,,,,,['l'],[0.7035542994271964],0.7035542994271964,1,[],,,,,,,,,,,123,A,2,2019_Jun_30_2049,PM,3.0.6,59.7872222955992,
PM_list_2.xlsx,PM_images_list_2.xlsx,cue words2.xlsx,cue images2.xlsx,recog_task2.xlsx,recog_task_images2.xlsx,,crucify,l,0,NoHit,2,,,,,,,,,,,,,,0,1,1,1,,,,,,,,,,,,,,,,,0,33,33,33,,,,,,,,,,,,,,,,,['l'],[0.4351695589721203],0.4351695589721203,1,[],,,,,,,,,,,123,A,2,2019_Jun_30_2049,PM,3.0.6,59.7872222955992,
PM_list_2.xlsx,PM_images_list_2.xlsx,cue words2.xlsx,cue images2.xlsx,recog_task2.xlsx,recog_task_images2.xlsx,,stomach,l,0,NoHit,2,,,,,,,,,,,,,,0,1,1,1,,,,,,,,,,,,,,,,,0,34,34,34,,,,,,,,,,,,,,,,,['l'],[0.4864060488762334],0.4864060488762334,1,[],,,,,,,,,,,123,A,2,2019_Jun_30_2049,PM,3.0.6,59.7872222955992,
PM_list_2.xlsx,PM_images_list_2.xlsx,cue words2.xlsx,cue images2.xlsx,recog_task2.xlsx,recog_task_images2.xlsx,,crucify,d,1,Hit,2,,,,,,,,,,,,,,0,1,1,1,,,,,,,,,,,,,,,,,0,35,35,35,,,,,,,,,,,,,,,,,['d'],[0.38644041714724153],0.38644041714724153,1,[],,,,,,,,,,,123,A,2,2019_Jun_30_2049,PM,3.0.6,59.7872222955992,
PM_list_2.xlsx,PM_images_list_2.xlsx,cue words2.xlsx,cue images2.xlsx,recog_task2.xlsx,recog_task_images2.xlsx,,accident,l,0,NoHit,2,,,,,,,,,,,,,,0,1,1,1,,,,,,,,,,,,,,,,,0,36,36,36,,,,,,,,,,,,,,,,,['l'],[0.5199228508863598],0.5199228508863598,1,[],,,,,,,,,,,123,A,2,2019_Jun_30_2049,PM,3.0.6,59.7872222955992,
PM_list_2.xlsx,PM_images_list_2.xlsx,cue words2.xlsx,cue images2.xlsx,recog_task2.xlsx,recog_task_images2.xlsx,,bird,l,0,NoHit,2,,,,,,,,,,,,,,0,1,1,1,,,,,,,,,,,,,,,,,0,37,37,37,,,,,,,,,,,,,,,,,['l'],[0.4358169144252315],0.4358169144252315,1,[],,,,,,,,,,,123,A,2,2019_Jun_30_2049,PM,3.0.6,59.7872222955992,
PM_list_2.xlsx,PM_images_list_2.xlsx,cue words2.xlsx,cue images2.xlsx,recog_task2.xlsx,recog_task_images2.xlsx,,couple,python,0,NoHit,2,,,,,,,,,,,,,,0,1,1,1,,,,,,,,,,,,,,,,,0,38,38,38,,,,,,,,,,,,,,,,,['l'],[0.4185178534826264],0.4185178534826264,0,[],,,,,,,,,,,123,A,2,2019_Jun_30_2049,PM,3.0.6,59.7872222955992,
PM_list_2.xlsx,PM_images_list_2.xlsx,cue words2.xlsx,cue images2.xlsx,recog_task2.xlsx,recog_task_images2.xlsx,,stiff,l,0,NoHit,2,,,,,,,,,,,,,,0,1,1,1,,,,,,,,,,,,,,,,,0,39,39,39,,,,,,,,,,,,,,,,,['l'],[0.7197853776160628],0.7197853776160628,1,[],,,,,,,,,,,123,A,2,2019_Jun_30_2049,PM,3.0.6,59.7872222955992,
PM_list_2.xlsx,PM_images_list_2.xlsx,cue words2.xlsx,cue images2.xlsx,recog_task2.xlsx,recog_task_images2.xlsx,,couple,d,1,Hit,2,,,,,,,,,,,,,,0,1,1,1,,,,,,,,,,,,,,,,,0,40,40,40,,,,,,,,,,,,,,,,,['d'],[0.5865943051176146],0.5865943051176146,1,[],,,,,,,,,,,123,A,2,2019_Jun_30_2049,PM,3.0.6,59.7872222955992,
PM_list_2.xlsx,PM_images_list_2.xlsx,cue words2.xlsx,cue images2.xlsx,recog_task2.xlsx,recog_task_images2.xlsx,,abuse,l,0,NoHit,2,,,,,,,,,,,,,,0,1,1,1,,,,,,,,,,,,,,,,,0,41,41,41,,,,,,,,,,,,,,,,,['l'],[0.45194437471218407],0.45194437471218407,1,[],,,,,,,,,,,123,A,2,2019_Jun_30_2049,PM,3.0.6,59.7872222955992,
PM_list_2.xlsx,PM_images_list_2.xlsx,cue words2.xlsx,cue images2.xlsx,recog_task2.xlsx,recog_task_images2.xlsx,,cozy,h,8,PosL2,2,,,,,,,,,,,,,,0,1,1,1,,,,,,,,,,,,,,,,,0,42,42,42,,,,,,,,,,,,,,,,,"['l', 'h']","[0.41731650137808174, 1.1698441114276648]",0.41731650137808174,0,1,,,,,,,,,,,123,A,2,2019_Jun_30_2049,PM,3.0.6,59.7872222955992,
PM_list_2.xlsx,PM_images_list_2.xlsx,cue words2.xlsx,cue images2.xlsx,recog_task2.xlsx,recog_task_images2.xlsx,,earth,l,0,NoHit,2,,,,,,,,,,,,,,0,1,1,1,,,,,,,,,,,,,,,,,0,43,43,43,,,,,,,,,,,,,,,,,['l'],[0.42103238322306424],0.42103238322306424,1,[],,,,,,,,,,,123,A,2,2019_Jun_30_2049,PM,3.0.6,59.7872222955992,
PM_list_2.xlsx,PM_images_list_2.xlsx,cue words2.xlsx,cue images2.xlsx,recog_task2.xlsx,recog_task_images2.xlsx,,tower,l,0,NoHit,2,,,,,,,,,,,,,,0,1,1,1,,,,,,,,,,,,,,,,,0,44,44,44,,,,,,,,,,,,,,,,,['l'],[0.3691864968277514],0.3691864968277514,1,[],,,,,,,,,,,123,A,2,2019_Jun_30_2049,PM,3.0.6,59.7872222955992,
PM_list_2.xlsx,PM_images_list_2.xlsx,cue words2.xlsx,cue images2.xlsx,recog_task2.xlsx,recog_task_images2.xlsx,,earth,d,1,Hit,2,,,,,,,,,,,,,,0,1,1,1,,,,,,,,,,,,,,,,,0,45,45,45,,,,,,,,,,,,,,,,,['d'],[0.5856699513969943],0.5856699513969943,1,[],,,,,,,,,,,123,A,2,2019_Jun_30_2049,PM,3.0.6,59.7872222955992,
PM_list_2.xlsx,PM_images_list_2.xlsx,cue words2.xlsx,cue images2.xlsx,recog_task2.xlsx,recog_task_images2.xlsx,,accident,l,0,NoHit,2,,,,,,,,,,,,,,0,1,1,1,,,,,,,,,,,,,,,,,0,46,46,46,,,,,,,,,,,,,,,,,['l'],[0.36903466074727476],0.36903466074727476,1,[],,,,,,,,,,,123,A,2,2019_Jun_30_2049,PM,3.0.6,59.7872222955992,
PM_list_2.xlsx,PM_images_list_2.xlsx,cue words2.xlsx,cue images2.xlsx,recog_task2.xlsx,recog_task_images2.xlsx,,overwhelmed,l,0,NoHit,2,,,,,,,,,,,,,,0,1,1,1,,,,,,,,,,,,,,,,,0,47,47,47,,,,,,,,,,,,,,,,,['l'],[0.45033470646012574],0.45033470646012574,1,[],,,,,,,,,,,123,A,2,2019_Jun_30_2049,PM,3.0.6,59.7872222955992,
PM_list_2.xlsx,PM_images_list_2.xlsx,cue words2.xlsx,cue images2.xlsx,recog_task2.xlsx,recog_task_images2.xlsx,,thermometer,l,0,NoHit,2,,,,,,,,,,,,,,0,1,1,1,,,,,,,,,,,,,,,,,0,48,48,48,,,,,,,,,,,,,,,,,['l'],[0.40092640568036586],0.40092640568036586,1,[],,,,,,,,,,,123,A,2,2019_Jun_30_2049,PM,3.0.6,59.7872222955992,
PM_list_2.xlsx,PM_images_list_2.xlsx,cue words2.xlsx,cue images2.xlsx,recog_task2.xlsx,recog_task_images2.xlsx,,overwhelmed,d,1,Hit,2,,,,,,,,,,,,,,0,1,1,1,,,,,,,,,,,,,,,,,0,49,49,49,,,,,,,,,,,,,,,,,['d'],[0.436283707851544],0.436283707851544,1,[],,,,,,,,,,,123,A,2,2019_Jun_30_2049,PM,3.0.6,59.7872222955992,
PM_list_2.xlsx,PM_images_list_2.xlsx,cue words2.xlsx,cue images2.xlsx,recog_task2.xlsx,recog_task_images2.xlsx,,weary,l,0,NoHit,2,,,,,,,,,,,,,,0,1,1,1,,,,,,,,,,,,,,,,,0,50,50,50,,,,,,,,,,,,,,,,,['l'],[0.45319599693175405],0.45319599693175405,1,[],,,,,,,,,,,123,A,2,2019_Jun_30_2049,PM,3.0.6,59.7872222955992,
PM_list_2.xlsx,PM_images_list_2.xlsx,cue words2.xlsx,cue images2.xlsx,recog_task2.xlsx,recog_task_images2.xlsx,,python,h,12,NeuH2,2,,,,,,,,,,,,,,0,1,1,1,,,,,,,,,,,,,,,,,0,51,51,51,,,,,,,,,,,,,,,,,"['l', 'h']","[0.40244066331069916, 1.4395215109689161]",0.40244066331069916,0,1,,,,,,,,,,,123,A,2,2019_Jun_30_2049,PM,3.0.6,59.7872222955992,
PM_list_2.xlsx,PM_images_list_2.xlsx,cue words2.xlsx,cue images2.xlsx,recog_task2.xlsx,recog_task_images2.xlsx,,chaos,l,0,NoHit,2,,,,,,,,,,,,,,0,1,1,1,,,,,,,,,,,,,,,,,0,52,52,52,,,,,,,,,,,,,,,,,['l'],[0.5029726028442383],0.5029726028442383,1,[],,,,,,,,,,,123,A,2,2019_Jun_30_2049,PM,3.0.6,59.7872222955992,
PM_list_2.xlsx,PM_images_list_2.xlsx,cue words2.xlsx,cue images2.xlsx,recog_task2.xlsx,recog_task_images2.xlsx,,handicap,l,0,NoHit,2,,,,,,,,,,,,,,0,1,1,1,,,,,,,,,,,,,,,,,0,53,53,53,,,,,,,,,,,,,,,,,['l'],[0.3525009361328557],0.3525009361328557,1,[],,,,,,,,,,,123,A,2,2019_Jun_30_2049,PM,3.0.6,59.7872222955992,
PM_list_2.xlsx,PM_images_list_2.xlsx,cue words2.xlsx,cue images2.xlsx,recog_task2.xlsx,recog_task_images2.xlsx,,chaos,d,1,Hit,2,,,,,,,,,,,,,,0,1,1,1,,,,,,,,,,,,,,,,,0,54,54,54,,,,,,,,,,,,,,,,,['d'],[0.38426854473073035],0.38426854473073035,1,[],,,,,,,,,,,123,A,2,2019_Jun_30_2049,PM,3.0.6,59.7872222955992,
PM_list_2.xlsx,PM_images_list_2.xlsx,cue words2.xlsx,cue images2.xlsx,recog_task2.xlsx,recog_task_images2.xlsx,,trunk,l,0,NoHit,2,,,,,,,,,,,,,,0,1,1,1,,,,,,,,,,,,,,,,,0,55,55,55,,,,,,,,,,,,,,,,,['l'],[0.335659435717389],0.335659435717389,1,[],,,,,,,,,,,123,A,2,2019_Jun_30_2049,PM,3.0.6,59.7872222955992,
PM_list_2.xlsx,PM_images_list_2.xlsx,cue words2.xlsx,cue images2.xlsx,recog_task2.xlsx,recog_task_images2.xlsx,,spray,l,0,NoHit,2,,,,,,,,,,,,,,0,1,1,1,,,,,,,,,,,,,,,,,0,56,56,56,,,,,,,,,,,,,,,,,['l'],[0.38487794110551476],0.38487794110551476,1,[],,,,,,,,,,,123,A,2,2019_Jun_30_2049,PM,3.0.6,59.7872222955992,
PM_list_2.xlsx,PM_images_list_2.xlsx,cue words2.xlsx,cue images2.xlsx,recog_task2.xlsx,recog_task_images2.xlsx,,crash,l,0,NoHit,2,,,,,,,,,,,,,,0,1,1,1,,,,,,,,,,,,,,,,,0,57,57,57,,,,,,,,,,,,,,,,,['l'],[0.31926523614674807],0.31926523614674807,1,[],,,,,,,,,,,123,A,2,2019_Jun_30_2049,PM,3.0.6,59.7872222955992,
PM_list_2.xlsx,PM_images_list_2.xlsx,cue words2.xlsx,cue images2.xlsx,recog_task2.xlsx,recog_task_images2.xlsx,,dignified,l,0,NoHit,2,,,,,,,,,,,,,,0,1,1,1,,,,,,,,,,,,,,,,,0,58,58,58,,,,,,,,,,,,,,,,,['l'],[0.41830446221865714],0.41830446221865714,1,[],,,,,,,,,,,123,A,2,2019_Jun_30_2049,PM,3.0.6,59.7872222955992,
PM_list_2.xlsx,PM_images_list_2.xlsx,cue words2.xlsx,cue images2.xlsx,recog_task2.xlsx,recog_task_images2.xlsx,,crash,d,1,Hit,2,,,,,,,,,,,,,,0,1,1,1,,,,,,,,,,,,,,,,,0,59,59,59,,,,,,,,,,,,,,,,,['d'],[0.3355117031605914],0.3355117031605914,1,[],,,,,,,,,,,123,A,2,2019_Jun_30_2049,PM,3.0.6,59.7872222955992,
PM_list_2.xlsx,PM_images_list_2.xlsx,cue words2.xlsx,cue images2.xlsx,recog_task2.xlsx,recog_task_images2.xlsx,,divorce,h,13,NegH2,2,,,,,,,,,,,,,,0,1,1,1,,,,,,,,,,,,,,,,,0,60,60,60,,,,,,,,,,,,,,,,,['l'],[0.4693911678623408],0.4693911678623408,0,0,,,,,,,,,,,123,A,2,2019_Jun_30_2049,PM,3.0.6,59.7872222955992,
PM_list_2.xlsx,PM_images_list_2.xlsx,cue words2.xlsx,cue images2.xlsx,recog_task2.xlsx,recog_task_images2.xlsx,,bed,l,0,NoHit,2,,,,,,,,,,,,,,0,1,1,1,,,,,,,,,,,,,,,,,0,61,61,61,,,,,,,,,,,,,,,,,['l'],[0.45279383624438196],0.45279383624438196,1,[],,,,,,,,,,,123,A,2,2019_Jun_30_2049,PM,3.0.6,59.7872222955992,
PM_list_2.xlsx,PM_images_list_2.xlsx,cue words2.xlsx,cue images2.xlsx,recog_task2.xlsx,recog_task_images2.xlsx,,easy,l,0,NoHit,2,,,,,,,,,,,,,,0,1,1,1,,,,,,,,,,,,,,,,,0,62,62,62,,,,,,,,,,,,,,,,,['l'],[0.48621522763278335],0.48621522763278335,1,[],,,,,,,,,,,123,A,2,2019_Jun_30_2049,PM,3.0.6,59.7872222955992,
PM_list_2.xlsx,PM_images_list_2.xlsx,cue words2.xlsx,cue images2.xlsx,recog_task2.xlsx,recog_task_images2.xlsx,,bed,d,1,Hit,2,,,,,,,,,,,,,,0,1,1,1,,,,,,,,,,,,,,,,,0,63,63,63,,,,,,,,,,,,,,,,,['d'],[0.26865968701895326],0.26865968701895326,1,[],,,,,,,,,,,123,A,2,2019_Jun_30_2049,PM,3.0.6,59.7872222955992,
PM_list_2.xlsx,PM_images_list_2.xlsx,cue words2.xlsx,cue images2.xlsx,recog_task2.xlsx,recog_task_images2.xlsx,,disaster,l,0,NoHit,2,,,,,,,,,,,,,,0,1,1,1,,,,,,,,,,,,,,,,,0,64,64,64,,,,,,,,,,,,,,,,,['l'],[0.485872570425272],0.485872570425272,1,[],,,,,,,,,,,123,A,2,2019_Jun_30_2049,PM,3.0.6,59.7872222955992,
PM_list_2.xlsx,PM_images_list_2.xlsx,cue words2.xlsx,cue images2.xlsx,recog_task2.xlsx,recog_task_images2.xlsx,,stomach,l,0,NoHit,2,,,,,,,,,,,,,,0,1,1,1,,,,,,,,,,,,,,,,,0,65,65,65,,,,,,,,,,,,,,,,,['l'],[0.41858659009449184],0.41858659009449184,1,[],,,,,,,,,,,123,A,2,2019_Jun_30_2049,PM,3.0.6,59.7872222955992,
PM_list_2.xlsx,PM_images_list_2.xlsx,cue words2.xlsx,cue images2.xlsx,recog_task2.xlsx,recog_task_images2.xlsx,,disaster,d,1,Hit,2,,,,,,,,,,,,,,0,1,1,1,,,,,,,,,,,,,,,,,0,66,66,66,,,,,,,,,,,,,,,,,"['l', 'd']","[0.38620650744996965, 0.7877874500118196]",0.38620650744996965,0,[],,,,,,,,,,,123,A,2,2019_Jun_30_2049,PM,3.0.6,59.7872222955992,
PM_list_2.xlsx,PM_images_list_2.xlsx,cue words2.xlsx,cue images2.xlsx,recog_task2.xlsx,recog_task_images2.xlsx,,bird,l,0,NoHit,2,,,,,,,,,,,,,,0,1,1,1,,,,,,,,,,,,,,,,,0,67,67,67,,,,,,,,,,,,,,,,,['l'],[0.5522937002824619],0.5522937002824619,1,[],,,,,,,,,,,123,A,2,2019_Jun_30_2049,PM,3.0.6,59.7872222955992,
PM_list_2.xlsx,PM_images_list_2.xlsx,cue words2.xlsx,cue images2.xlsx,recog_task2.xlsx,recog_task_images2.xlsx,,dump,l,0,NoHit,2,,,,,,,,,,,,,,0,1,1,1,,,,,,,,,,,,,,,,,0,68,68,68,,,,,,,,,,,,,,,,,['l'],[0.6196227692998946],0.6196227692998946,1,[],,,,,,,,,,,123,A,2,2019_Jun_30_2049,PM,3.0.6,59.7872222955992,
PM_list_2.xlsx,PM_images_list_2.xlsx,cue words2.xlsx,cue images2.xlsx,recog_task2.xlsx,recog_task_images2.xlsx,,cuddle,l,0,NoHit,2,,,,,,,,,,,,,,0,1,1,1,,,,,,,,,,,,,,,,,0,69,69,69,,,,,,,,,,,,,,,,,['l'],[0.4863055086461827],0.4863055086461827,1,[],,,,,,,,,,,123,A,2,2019_Jun_30_2049,PM,3.0.6,59.7872222955992,
PM_list_2.xlsx,PM_images_list_2.xlsx,cue words2.xlsx,cue images2.xlsx,recog_task2.xlsx,recog_task_images2.xlsx,,dollar,h,11,PosH2,2,,,,,,,,,,,,,,0,1,1,1,,,,,,,,,,,,,,,,,0,70,70,70,,,,,,,,,,,,,,,,,['h'],[0.9710064786486328],0.9710064786486328,1,1,,,,,,,,,,,123,A,2,2019_Jun_30_2049,PM,3.0.6,59.7872222955992,
PM_list_2.xlsx,PM_images_list_2.xlsx,cue words2.xlsx,cue images2.xlsx,recog_task2.xlsx,recog_task_images2.xlsx,,cuddle,d,1,Hit,2,,,,,,,,,,,,,,0,1,1,1,,,,,,,,,,,,,,,,,0,71,71,71,,,,,,,,,,,,,,,,,['d'],[0.7709562085801736],0.7709562085801736,1,[],,,,,,,,,,,123,A,2,2019_Jun_30_2049,PM,3.0.6,59.7872222955992,
PM_list_2.xlsx,PM_images_list_2.xlsx,cue words2.xlsx,cue images2.xlsx,recog_task2.xlsx,recog_task_images2.xlsx,,assault,l,0,NoHit,2,,,,,,,,,,,,,,0,1,1,1,,,,,,,,,,,,,,,,,0,72,72,72,,,,,,,,,,,,,,,,,['l'],[0.5529615741688758],0.5529615741688758,1,[],,,,,,,,,,,123,A,2,2019_Jun_30_2049,PM,3.0.6,59.7872222955992,
PM_list_2.xlsx,PM_images_list_2.xlsx,cue words2.xlsx,cue images2.xlsx,recog_task2.xlsx,recog_task_images2.xlsx,,trash,l,0,NoHit,2,,,,,,,,,,,,,,0,1,1,1,,,,,,,,,,,,,,,,,0,73,73,73,,,,,,,,,,,,,,,,,['l'],[0.45200798159930855],0.45200798159930855,1,[],,,,,,,,,,,123,A,2,2019_Jun_30_2049,PM,3.0.6,59.7872222955992,
PM_list_2.xlsx,PM_images_list_2.xlsx,cue words2.xlsx,cue images2.xlsx,recog_task2.xlsx,recog_task_images2.xlsx,,ecstasy,l,0,NoHit,2,,,,,,,,,,,,,,0,1,1,1,,,,,,,,,,,,,,,,,0,74,74,74,,,,,,,,,,,,,,,,,['l'],[0.43465762480627745],0.43465762480627745,1,[],,,,,,,,,,,123,A,2,2019_Jun_30_2049,PM,3.0.6,59.7872222955992,
PM_list_2.xlsx,PM_images_list_2.xlsx,cue words2.xlsx,cue images2.xlsx,recog_task2.xlsx,recog_task_images2.xlsx,,abuse,l,0,NoHit,2,,,,,,,,,,,,,,0,1,1,1,,,,,,,,,,,,,,,,,0,75,75,75,,,,,,,,,,,,,,,,,['l'],[0.6199459340423346],0.6199459340423346,1,[],,,,,,,,,,,123,A,2,2019_Jun_30_2049,PM,3.0.6,59.7872222955992,
PM_list_2.xlsx,PM_images_list_2.xlsx,cue words2.xlsx,cue images2.xlsx,recog_task2.xlsx,recog_task_images2.xlsx,,ecstasy,d,1,Hit,2,,,,,,,,,,,,,,0,1,1,1,,,,,,,,,,,,,,,,,0,76,76,76,,,,,,,,,,,,,,,,,['d'],[0.41913032764568925],0.41913032764568925,1,[],,,,,,,,,,,123,A,2,2019_Jun_30_2049,PM,3.0.6,59.7872222955992,
PM_list_2.xlsx,PM_images_list_2.xlsx,cue words2.xlsx,cue images2.xlsx,recog_task2.xlsx,recog_task_images2.xlsx,,fatigued,l,0,NoHit,2,,,,,,,,,,,,,,0,1,1,1,,,,,,,,,,,,,,,,,0,77,77,77,,,,,,,,,,,,,,,,,['l'],[0.5025540274800733],0.5025540274800733,1,[],,,,,,,,,,,123,A,2,2019_Jun_30_2049,PM,3.0.6,59.7872222955992,
PM_list_2.xlsx,PM_images_list_2.xlsx,cue words2.xlsx,cue images2.xlsx,recog_task2.xlsx,recog_task_images2.xlsx,,urine,l,0,NoHit,2,,,,,,,,,,,,,,0,1,1,1,,,,,,,,,,,,,,,,,0,78,78,78,,,,,,,,,,,,,,,,,['l'],[0.45293233543634415],0.45293233543634415,1,[],,,,,,,,,,,123,A,2,2019_Jun_30_2049,PM,3.0.6,59.7872222955992,
PM_list_2.xlsx,PM_images_list_2.xlsx,cue words2.xlsx,cue images2.xlsx,recog_task2.xlsx,recog_task_images2.xlsx,,waste,l,0,NoHit,2,,,,,,,,,,,,,,0,1,1,1,,,,,,,,,,,,,,,,,0,79,79,79,,,,,,,,,,,,,,,,,['l'],[0.38550580420996994],0.38550580420996994,1,[],,,,,,,,,,,123,A,2,2019_Jun_30_2049,PM,3.0.6,59.7872222955992,
PM_list_2.xlsx,PM_images_list_2.xlsx,cue words2.xlsx,cue images2.xlsx,recog_task2.xlsx,recog_task_images2.xlsx,,assault,l,0,NoHit,2,,,,,,,,,,,,,,0,1,1,1,,,,,,,,,,,,,,,,,0,80,80,80,,,,,,,,,,,,,,,,,['l'],[0.5198315439047292],0.5198315439047292,1,[],,,,,,,,,,,123,A,2,2019_Jun_30_2049,PM,3.0.6,59.7872222955992,
PM_list_2.xlsx,PM_images_list_2.xlsx,cue words2.xlsx,cue images2.xlsx,recog_task2.xlsx,recog_task_images2.xlsx,,waste,d,1,Hit,2,,,,,,,,,,,,,,0,1,1,1,,,,,,,,,,,,,,,,,0,81,81,81,,,,,,,,,,,,,,,,,['d'],[0.4025165814673528],0.4025165814673528,1,[],,,,,,,,,,,123,A,2,2019_Jun_30_2049,PM,3.0.6,59.7872222955992,
PM_list_2.xlsx,PM_images_list_2.xlsx,cue words2.xlsx,cue images2.xlsx,recog_task2.xlsx,recog_task_images2.xlsx,,cozy,h,8,PosL2,2,,,,,,,,,,,,,,0,1,1,1,,,,,,,,,,,,,,,,,0,82,82,82,,,,,,,,,,,,,,,,,['h'],[1.0700241604354233],1.0700241604354233,1,1,,,,,,,,,,,123,A,2,2019_Jun_30_2049,PM,3.0.6,59.7872222955992,
PM_list_2.xlsx,PM_images_list_2.xlsx,cue words2.xlsx,cue images2.xlsx,recog_task2.xlsx,recog_task_images2.xlsx,,sad,l,0,NoHit,2,,,,,,,,,,,,,,0,1,1,1,,,,,,,,,,,,,,,,,0,83,83,83,,,,,,,,,,,,,,,,,['l'],[0.3856124997837469],0.3856124997837469,1,[],,,,,,,,,,,123,A,2,2019_Jun_30_2049,PM,3.0.6,59.7872222955992,
PM_list_2.xlsx,PM_images_list_2.xlsx,cue words2.xlsx,cue images2.xlsx,recog_task2.xlsx,recog_task_images2.xlsx,,scream,l,0,NoHit,2,,,,,,,,,,,,,,0,1,1,1,,,,,,,,,,,,,,,,,0,84,84,84,,,,,,,,,,,,,,,,,['l'],[0.569624564726837],0.569624564726837,1,[],,,,,,,,,,,123,A,2,2019_Jun_30_2049,PM,3.0.6,59.7872222955992,
PM_list_2.xlsx,PM_images_list_2.xlsx,cue words2.xlsx,cue images2.xlsx,recog_task2.xlsx,recog_task_images2.xlsx,,sad,d,1,Hit,2,,,,,,,,,,,,,,0,1,1,1,,,,,,,,,,,,,,,,,0,85,85,85,,,,,,,,,,,,,,,,,['d'],[0.4527209958760068],0.4527209958760068,1,[],,,,,,,,,,,123,A,2,2019_Jun_30_2049,PM,3.0.6,59.7872222955992,
PM_list_2.xlsx,PM_images_list_2.xlsx,cue words2.xlsx,cue images2.xlsx,recog_task2.xlsx,recog_task_images2.xlsx,,outrage,l,0,NoHit,2,,,,,,,,,,,,,,0,1,1,1,,,,,,,,,,,,,,,,,0,86,86,86,,,,,,,,,,,,,,,,,['l'],[0.501534263137728],0.501534263137728,1,[],,,,,,,,,,,123,A,2,2019_Jun_30_2049,PM,3.0.6,59.7872222955992,
PM_list_2.xlsx,PM_images_list_2.xlsx,cue words2.xlsx,cue images2.xlsx,recog_task2.xlsx,recog_task_images2.xlsx,,wagon,l,0,NoHit,2,,,,,,,,,,,,,,0,1,1,1,,,,,,,,,,,,,,,,,0,87,87,87,,,,,,,,,,,,,,,,,['l'],[0.4193909113528207],0.4193909113528207,1,[],,,,,,,,,,,123,A,2,2019_Jun_30_2049,PM,3.0.6,59.7872222955992,
PM_list_2.xlsx,PM_images_list_2.xlsx,cue words2.xlsx,cue images2.xlsx,recog_task2.xlsx,recog_task_images2.xlsx,,stagnant,l,0,NoHit,2,,,,,,,,,,,,,,0,1,1,1,,,,,,,,,,,,,,,,,0,88,88,88,,,,,,,,,,,,,,,,,['l'],[0.5030197951709852],0.5030197951709852,1,[],,,,,,,,,,,123,A,2,2019_Jun_30_2049,PM,3.0.6,59.7872222955992,
PM_list_2.xlsx,PM_images_list_2.xlsx,cue words2.xlsx,cue images2.xlsx,recog_task2.xlsx,recog_task_images2.xlsx,,wagon,d,1,Hit,2,,,,,,,,,,,,,,0,1,1,1,,,,,,,,,,,,,,,,,0,89,89,89,,,,,,,,,,,,,,,,,['l'],[0.8708561813691631],0.8708561813691631,0,[],,,,,,,,,,,123,A,2,2019_Jun_30_2049,PM,3.0.6,59.7872222955992,
PM_list_2.xlsx,PM_images_list_2.xlsx,cue words2.xlsx,cue images2.xlsx,recog_task2.xlsx,recog_task_images2.xlsx,,comfort,l,0,NoHit,2,,,,,,,,,,,,,,0,1,1,1,,,,,,,,,,,,,,,,,0,90,90,90,,,,,,,,,,,,,,,,,['l'],[0.6700908452039585],0.6700908452039585,1,[],,,,,,,,,,,123,A,2,2019_Jun_30_2049,PM,3.0.6,59.7872222955992,
PM_list_2.xlsx,PM_images_list_2.xlsx,cue words2.xlsx,cue images2.xlsx,recog_task2.xlsx,recog_task_images2.xlsx,,urine,l,0,NoHit,2,,,,,,,,,,,,,,0,1,1,1,,,,,,,,,,,,,,,,,0,91,91,91,,,,,,,,,,,,,,,,,['l'],[0.7059867554344237],0.7059867554344237,1,[],,,,,,,,,,,123,A,2,2019_Jun_30_2049,PM,3.0.6,59.7872222955992,
PM_list_2.xlsx,PM_images_list_2.xlsx,cue words2.xlsx,cue images2.xlsx,recog_task2.xlsx,recog_task_images2.xlsx,,suspicious,l,0,NoHit,2,,,,,,,,,,,,,,0,1,1,1,,,,,,,,,,,,,,,,,0,92,92,92,,,,,,,,,,,,,,,,,['l'],[0.50258275330998],0.50258275330998,1,[],,,,,,,,,,,123,A,2,2019_Jun_30_2049,PM,3.0.6,59.7872222955992,
PM_list_2.xlsx,PM_images_list_2.xlsx,cue words2.xlsx,cue images2.xlsx,recog_task2.xlsx,recog_task_images2.xlsx,,table,h,9,NeuL2,2,,,,,,,,,,,,,,0,1,1,1,,,,,,,,,,,,,,,,,0,93,93,93,,,,,,,,,,,,,,,,,['h'],[1.136766403215006],1.136766403215006,1,1,,,,,,,,,,,123,A,2,2019_Jun_30_2049,PM,3.0.6,59.7872222955992,
PM_list_2.xlsx,PM_images_list_2.xlsx,cue words2.xlsx,cue images2.xlsx,recog_task2.xlsx,recog_task_images2.xlsx,,suspicious,d,1,Hit,2,,,,,,,,,,,,,,0,1,1,1,,,,,,,,,,,,,,,,,0,94,94,94,,,,,,,,,,,,,,,,,['l'],[0.4687992121325806],0.4687992121325806,0,[],,,,,,,,,,,123,A,2,2019_Jun_30_2049,PM,3.0.6,59.7872222955992,
PM_list_2.xlsx,PM_images_list_2.xlsx,cue words2.xlsx,cue images2.xlsx,recog_task2.xlsx,recog_task_images2.xlsx,,discomfort,l,0,NoHit,2,,,,,,,,,,,,,,0,1,1,1,,,,,,,,,,,,,,,,,0,95,95,95,,,,,,,,,,,,,,,,,['l'],[0.6025329960975796],0.6025329960975796,1,[],,,,,,,,,,,123,A,2,2019_Jun_30_2049,PM,3.0.6,59.7872222955992,
PM_list_2.xlsx,PM_images_list_2.xlsx,cue words2.xlsx,cue images2.xlsx,recog_task2.xlsx,recog_task_images2.xlsx,,betray,l,0,NoHit,2,,,,,,,,,,,,,,0,1,1,1,,,,,,,,,,,,,,,,,0,96,96,96,,,,,,,,,,,,,,,,,['l'],[0.8372511503985152],0.8372511503985152,1,[],,,,,,,,,,,123,A,2,2019_Jun_30_2049,PM,3.0.6,59.7872222955992,
PM_list_2.xlsx,PM_images_list_2.xlsx,cue words2.xlsx,cue images2.xlsx,recog_task2.xlsx,recog_task_images2.xlsx,,scream,l,0,NoHit,2,,,,,,,,,,,,,,0,1,1,1,,,,,,,,,,,,,,,,,0,97,97,97,,,,,,,,,,,,,,,,,['l'],[0.7036989539628848],0.7036989539628848,1,[],,,,,,,,,,,123,A,2,2019_Jun_30_2049,PM,3.0.6,59.7872222955992,
PM_list_2.xlsx,PM_images_list_2.xlsx,cue words2.xlsx,cue images2.xlsx,recog_task2.xlsx,recog_task_images2.xlsx,,betray,d,1,Hit,2,,,,,,,,,,,,,,0,1,1,1,,,,,,,,,,,,,,,,,0,98,98,98,,,,,,,,,,,,,,,,,['d'],[0.3859674681443721],0.3859674681443721,1,[],,,,,,,,,,,123,A,2,2019_Jun_30_2049,PM,3.0.6,59.7872222955992,
PM_list_2.xlsx,PM_images_list_2.xlsx,cue words2.xlsx,cue images2.xlsx,recog_task2.xlsx,recog_task_images2.xlsx,,vampire,l,0,NoHit,2,,,,,,,,,,,,,,0,1,1,1,,,,,,,,,,,,,,,,,0,99,99,99,,,,,,,,,,,,,,,,,['l'],[0.402326786192134],0.402326786192134,1,[],,,,,,,,,,,123,A,2,2019_Jun_30_2049,PM,3.0.6,59.7872222955992,
PM_list_2.xlsx,PM_images_list_2.xlsx,cue words2.xlsx,cue images2.xlsx,recog_task2.xlsx,recog_task_images2.xlsx,,trash,l,0,NoHit,2,,,,,,,,,,,,,,0,1,1,1,,,,,,,,,,,,,,,,,0,100,100,100,,,,,,,,,,,,,,,,,['l'],[0.5864137432072312],0.5864137432072312,1,[],,,,,,,,,,,123,A,2,2019_Jun_30_2049,PM,3.0.6,59.7872222955992,
PM_list_2.xlsx,PM_images_list_2.xlsx,cue words2.xlsx,cue images2.xlsx,recog_task2.xlsx,recog_task_images2.xlsx,,vampire,d,1,Hit,2,,,,,,,,,,,,,,0,1,1,1,,,,,,,,,,,,,,,,,0,101,101,101,,,,,,,,,,,,,,,,,"['l', 'd']","[0.5518074142746627, 0.8525599265703931]",0.5518074142746627,0,[],,,,,,,,,,,123,A,2,2019_Jun_30_2049,PM,3.0.6,59.7872222955992,
PM_list_2.xlsx,PM_images_list_2.xlsx,cue words2.xlsx,cue images2.xlsx,recog_task2.xlsx,recog_task_images2.xlsx,,kind,l,0,NoHit,2,,,,,,,,,,,,,,0,1,1,1,,,,,,,,,,,,,,,,,0,102,102,102,,,,,,,,,,,,,,,,,['l'],[0.8365863541839644],0.8365863541839644,1,[],,,,,,,,,,,123,A,2,2019_Jun_30_2049,PM,3.0.6,59.7872222955992,
PM_list_2.xlsx,PM_images_list_2.xlsx,cue words2.xlsx,cue images2.xlsx,recog_task2.xlsx,recog_task_images2.xlsx,,elated,l,0,NoHit,2,,,,,,,,,,,,,,0,1,1,1,,,,,,,,,,,,,,,,,0,103,103,103,,,,,,,,,,,,,,,,,['l'],[0.5530292849289253],0.5530292849289253,1,[],,,,,,,,,,,123,A,2,2019_Jun_30_2049,PM,3.0.6,59.7872222955992,
PM_list_2.xlsx,PM_images_list_2.xlsx,cue words2.xlsx,cue images2.xlsx,recog_task2.xlsx,recog_task_images2.xlsx,,kind,d,1,Hit,2,,,,,,,,,,,,,,0,1,1,1,,,,,,,,,,,,,,,,,0,104,104,104,,,,,,,,,,,,,,,,,['d'],[0.469418867607601],0.469418867607601,1,[],,,,,,,,,,,123,A,2,2019_Jun_30_2049,PM,3.0.6,59.7872222955992,
PM_list_2.xlsx,PM_images_list_2.xlsx,cue words2.xlsx,cue images2.xlsx,recog_task2.xlsx,recog_task_images2.xlsx,,divorce,h,13,NegH2,2,,,,,,,,,,,,,,0,1,1,1,,,,,,,,,,,,,,,,,0,105,105,105,,,,,,,,,,,,,,,,,['l'],[0.6532883297186345],0.6532883297186345,0,0,,,,,,,,,,,123,A,2,2019_Jun_30_2049,PM,3.0.6,59.7872222955992,
PM_list_2.xlsx,PM_images_list_2.xlsx,cue words2.xlsx,cue images2.xlsx,recog_task2.xlsx,recog_task_images2.xlsx,,mucus,l,0,NoHit,2,,,,,,,,,,,,,,0,1,1,1,,,,,,,,,,,,,,,,,0,106,106,106,,,,,,,,,,,,,,,,,['l'],[0.452944646589458],0.452944646589458,1,[],,,,,,,,,,,123,A,2,2019_Jun_30_2049,PM,3.0.6,59.7872222955992,
PM_list_2.xlsx,PM_images_list_2.xlsx,cue words2.xlsx,cue images2.xlsx,recog_task2.xlsx,recog_task_images2.xlsx,,christmas,l,0,NoHit,2,,,,,,,,,,,,,,0,1,1,1,,,,,,,,,,,,,,,,,0,107,107,107,,,,,,,,,,,,,,,,,['l'],[0.41929652669932693],0.41929652669932693,1,[],,,,,,,,,,,123,A,2,2019_Jun_30_2049,PM,3.0.6,59.7872222955992,
PM_list_2.xlsx,PM_images_list_2.xlsx,cue words2.xlsx,cue images2.xlsx,recog_task2.xlsx,recog_task_images2.xlsx,,stink,l,0,NoHit,2,,,,,,,,,,,,,,0,1,1,1,,,,,,,,,,,,,,,,,0,108,108,108,,,,,,,,,,,,,,,,,['l'],[0.4523280686698854],0.4523280686698854,1,[],,,,,,,,,,,123,A,2,2019_Jun_30_2049,PM,3.0.6,59.7872222955992,
PM_list_2.xlsx,PM_images_list_2.xlsx,cue words2.xlsx,cue images2.xlsx,recog_task2.xlsx,recog_task_images2.xlsx,,christmas,d,1,Hit,2,,,,,,,,,,,,,,0,1,1,1,,,,,,,,,,,,,,,,,0,109,109,109,,,,,,,,,,,,,,,,,['d'],[0.6029679861385375],0.6029679861385375,1,[],,,,,,,,,,,123,A,2,2019_Jun_30_2049,PM,3.0.6,59.7872222955992,
PM_list_2.xlsx,PM_images_list_2.xlsx,cue words2.xlsx,cue images2.xlsx,recog_task2.xlsx,recog_task_images2.xlsx,,admired,l,0,NoHit,2,,,,,,,,,,,,,,0,1,1,1,,,,,,,,,,,,,,,,,0,110,110,110,,,,,,,,,,,,,,,,,['l'],[0.42005262977909297],0.42005262977909297,1,[],,,,,,,,,,,123,A,2,2019_Jun_30_2049,PM,3.0.6,59.7872222955992,
PM_list_2.xlsx,PM_images_list_2.xlsx,cue words2.xlsx,cue images2.xlsx,recog_task2.xlsx,recog_task_images2.xlsx,,despise,l,0,NoHit,2,,,,,,,,,,,,,,0,1,1,1,,,,,,,,,,,,,,,,,0,111,111,111,,,,,,,,,,,,,,,,,['l'],[0.5172585370019078],0.5172585370019078,1,[],,,,,,,,,,,123,A,2,2019_Jun_30_2049,PM,3.0.6,59.7872222955992,
PM_list_2.xlsx,PM_images_list_2.xlsx,cue words2.xlsx,cue images2.xlsx,recog_task2.xlsx,recog_task_images2.xlsx,,engaged,l,0,NoHit,2,,,,,,,,,,,,,,0,1,1,1,,,,,,,,,,,,,,,,,0,112,112,112,,,,,,,,,,,,,,,,,['l'],[0.569619435002096],0.569619435002096,1,[],,,,,,,,,,,123,A,2,2019_Jun_30_2049,PM,3.0.6,59.7872222955992,
PM_list_2.xlsx,PM_images_list_2.xlsx,cue words2.xlsx,cue images2.xlsx,recog_task2.xlsx,recog_task_images2.xlsx,,despise,d,1,Hit,2,,,,,,,,,,,,,,0,1,1,1,,,,,,,,,,,,,,,,,0,113,113,113,,,,,,,,,,,,,,,,,['d'],[0.6699461905518547],0.6699461905518547,1,[],,,,,,,,,,,123,A,2,2019_Jun_30_2049,PM,3.0.6,59.7872222955992,
PM_list_2.xlsx,PM_images_list_2.xlsx,cue words2.xlsx,cue images2.xlsx,recog_task2.xlsx,recog_task_images2.xlsx,,elated,l,0,NoHit,2,,,,,,,,,,,,,,0,1,1,1,,,,,,,,,,,,,,,,,0,114,114,114,,,,,,,,,,,,,,,,,['l'],[0.38539705658331513],0.38539705658331513,1,[],,,,,,,,,,,123,A,2,2019_Jun_30_2049,PM,3.0.6,59.7872222955992,
PM_list_2.xlsx,PM_images_list_2.xlsx,cue words2.xlsx,cue images2.xlsx,recog_task2.xlsx,recog_task_images2.xlsx,,lightning,l,0,NoHit,2,,,,,,,,,,,,,,0,1,1,1,,,,,,,,,,,,,,,,,0,115,115,115,,,,,,,,,,,,,,,,,['l'],[0.46841551805846393],0.46841551805846393,1,[],,,,,,,,,,,123,A,2,2019_Jun_30_2049,PM,3.0.6,59.7872222955992,
PM_list_2.xlsx,PM_images_list_2.xlsx,cue words2.xlsx,cue images2.xlsx,recog_task2.xlsx,recog_task_images2.xlsx,,umbrella,l,0,NoHit,2,,,,,,,,,,,,,,0,1,1,1,,,,,,,,,,,,,,,,,0,116,116,116,,,,,,,,,,,,,,,,,['l'],[0.40245400031562895],0.40245400031562895,1,[],,,,,,,,,,,123,A,2,2019_Jun_30_2049,PM,3.0.6,59.7872222955992,
PM_list_2.xlsx,PM_images_list_2.xlsx,cue words2.xlsx,cue images2.xlsx,recog_task2.xlsx,recog_task_images2.xlsx,,impair,h,10,NegL2,2,,,,,,,,,,,,,,0,1,1,1,,,,,,,,,,,,,,,,,0,117,117,117,,,,,,,,,,,,,,,,,None,[],,0,0,,,,,,,,,,,123,A,2,2019_Jun_30_2049,PM,3.0.6,59.7872222955992,
PM_list_2.xlsx,PM_images_list_2.xlsx,cue words2.xlsx,cue images2.xlsx,recog_task2.xlsx,recog_task_images2.xlsx,,umbrella,d,1,Hit,2,,,,,,,,,,,,,,0,1,1,1,,,,,,,,,,,,,,,,,0,118,118,118,,,,,,,,,,,,,,,,,"['h', 'l', 'd']","[0.051339081837795675, 0.8372152431402355, 1.1718938993290067]",0.051339081837795675,0,[],,,,,,,,,,,123,A,2,2019_Jun_30_2049,PM,3.0.6,59.7872222955992,
PM_list_2.xlsx,PM_images_list_2.xlsx,cue words2.xlsx,cue images2.xlsx,recog_task2.xlsx,recog_task_images2.xlsx,,weary,l,0,NoHit,2,,,,,,,,,,,,,,0,1,1,1,,,,,,,,,,,,,,,,,0,119,119,119,,,,,,,,,,,,,,,,,['l'],[0.8037825665669516],0.8037825665669516,1,[],,,,,,,,,,,123,A,2,2019_Jun_30_2049,PM,3.0.6,59.7872222955992,
PM_list_2.xlsx,PM_images_list_2.xlsx,cue words2.xlsx,cue images2.xlsx,recog_task2.xlsx,recog_task_images2.xlsx,,lightning,l,0,NoHit,2,,,,,,,,,,,,,,0,1,1,1,,,,,,,,,,,,,,,,,0,120,120,120,,,,,,,,,,,,,,,,,['l'],[0.5365848153596744],0.5365848153596744,1,[],,,,,,,,,,,123,A,2,2019_Jun_30_2049,PM,3.0.6,59.7872222955992,
PM_list_2.xlsx,PM_images_list_2.xlsx,cue words2.xlsx,cue images2.xlsx,recog_task2.xlsx,recog_task_images2.xlsx,,peace,l,0,NoHit,2,,,,,,,,,,,,,,0,1,1,1,,,,,,,,,,,,,,,,,0,121,121,121,,,,,,,,,,,,,,,,,['l'],[0.41871380421798676],0.41871380421798676,1,[],,,,,,,,,,,123,A,2,2019_Jun_30_2049,PM,3.0.6,59.7872222955992,
PM_list_2.xlsx,PM_images_list_2.xlsx,cue words2.xlsx,cue images2.xlsx,recog_task2.xlsx,recog_task_images2.xlsx,,mucus,l,0,NoHit,2,,,,,,,,,,,,,,0,1,1,1,,,,,,,,,,,,,,,,,0,122,122,122,,,,,,,,,,,,,,,,,['l'],[0.40237500448711216],0.40237500448711216,1,[],,,,,,,,,,,123,A,2,2019_Jun_30_2049,PM,3.0.6,59.7872222955992,
PM_list_2.xlsx,PM_images_list_2.xlsx,cue words2.xlsx,cue images2.xlsx,recog_task2.xlsx,recog_task_images2.xlsx,,peace,d,1,Hit,2,,,,,,,,,,,,,,0,1,1,1,,,,,,,,,,,,,,,,,0,123,123,123,,,,,,,,,,,,,,,,,['d'],[0.48629627539776266],0.48629627539776266,1,[],,,,,,,,,,,123,A,2,2019_Jun_30_2049,PM,3.0.6,59.7872222955992,
PM_list_2.xlsx,PM_images_list_2.xlsx,cue words2.xlsx,cue images2.xlsx,recog_task2.xlsx,recog_task_images2.xlsx,,stink,l,0,NoHit,2,,,,,,,,,,,,,,0,1,1,1,,,,,,,,,,,,,,,,,0,124,124,124,,,,,,,,,,,,,,,,,['l'],[0.6031157185789198],0.6031157185789198,1,[],,,,,,,,,,,123,A,2,2019_Jun_30_2049,PM,3.0.6,59.7872222955992,
PM_list_2.xlsx,PM_images_list_2.xlsx,cue words2.xlsx,cue images2.xlsx,recog_task2.xlsx,recog_task_images2.xlsx,,admired,l,0,NoHit,2,,,,,,,,,,,,,,0,1,1,1,,,,,,,,,,,,,,,,,0,125,125,125,,,,,,,,,,,,,,,,,['l'],[0.569766141474247],0.569766141474247,1,[],,,,,,,,,,,123,A,2,2019_Jun_30_2049,PM,3.0.6,59.7872222955992,
PM_list_2.xlsx,PM_images_list_2.xlsx,cue words2.xlsx,cue images2.xlsx,recog_task2.xlsx,recog_task_images2.xlsx,,agony,l,0,NoHit,2,,,,,,,,,,,,,,0,1,1,1,,,,,,,,,,,,,,,,,0,126,126,126,,,,,,,,,,,,,,,,,['l'],[0.3863367992453277],0.3863367992453277,1,[],,,,,,,,,,,123,A,2,2019_Jun_30_2049,PM,3.0.6,59.7872222955992,
PM_list_2.xlsx,PM_images_list_2.xlsx,cue words2.xlsx,cue images2.xlsx,recog_task2.xlsx,recog_task_images2.xlsx,,python,h,12,NeuH2,2,,,,,,,,,,,,,,0,1,1,1,,,,,,,,,,,,,,,,,0,127,127,127,,,,,,,,,,,,,,,,,['h'],[1.0717918203445151],1.0717918203445151,1,1,,,,,,,,,,,123,A,2,2019_Jun_30_2049,PM,3.0.6,59.7872222955992,
PM_list_2.xlsx,PM_images_list_2.xlsx,cue words2.xlsx,cue images2.xlsx,recog_task2.xlsx,recog_task_images2.xlsx,,agony,d,1,Hit,2,,,,,,,,,,,,,,0,1,1,1,,,,,,,,,,,,,,,,,0,128,128,128,,,,,,,,,,,,,,,,,['l'],[0.3856822623638436],0.3856822623638436,0,[],,,,,,,,,,,123,A,2,2019_Jun_30_2049,PM,3.0.6,59.7872222955992,
PM_list_2.xlsx,PM_images_list_2.xlsx,cue words2.xlsx,cue images2.xlsx,recog_task2.xlsx,recog_task_images2.xlsx,,outrage,l,0,NoHit,2,,,,,,,,,,,,,,0,1,1,1,,,,,,,,,,,,,,,,,0,129,129,129,,,,,,,,,,,,,,,,,['l'],[0.4354937495663762],0.4354937495663762,1,[],,,,,,,,,,,123,A,2,2019_Jun_30_2049,PM,3.0.6,59.7872222955992,
PM_list_2.xlsx,PM_images_list_2.xlsx,cue words2.xlsx,cue images2.xlsx,recog_task2.xlsx,recog_task_images2.xlsx,,engaged,l,0,NoHit,2,,,,,,,,,,,,,,0,1,1,1,,,,,,,,,,,,,,,,,0,130,130,130,,,,,,,,,,,,,,,,,['l'],[0.4837437866954133],0.4837437866954133,1,[],,,,,,,,,,,123,A,2,2019_Jun_30_2049,PM,3.0.6,59.7872222955992,
PM_list_2.xlsx,PM_images_list_2.xlsx,cue words2.xlsx,cue images2.xlsx,recog_task2.xlsx,recog_task_images2.xlsx,,cyclone,l,0,NoHit,2,,,,,,,,,,,,,,0,1,1,1,,,,,,,,,,,,,,,,,0,131,131,131,,,,,,,,,,,,,,,,,['l'],[0.4699092573719099],0.4699092573719099,1,[],,,,,,,,,,,123,A,2,2019_Jun_30_2049,PM,3.0.6,59.7872222955992,
PM_list_2.xlsx,PM_images_list_2.xlsx,cue words2.xlsx,cue images2.xlsx,recog_task2.xlsx,recog_task_images2.xlsx,,overwhelmed,,,None,,l,,,,,,,,,,,,,0,1,1,1,,,,,,,,,,,,,,,,,,,,,0,0,0,2,,,,,,,,,,,,,,,,,,l,1,1.857402268331498,,,,,,,,123,A,2,2019_Jun_30_2049,PM,3.0.6,59.7872222955992,
PM_list_2.xlsx,PM_images_list_2.xlsx,cue words2.xlsx,cue images2.xlsx,recog_task2.xlsx,recog_task_images2.xlsx,,cozy,,,PosL2,,d,,,,,,,,,,,,,0,1,1,1,,,,,,,,,,,,,,,,,,,,,0,1,1,16,,,,,,,,,,,,,,,,,,d,1,0.6352229067124426,,,,,,,,123,A,2,2019_Jun_30_2049,PM,3.0.6,59.7872222955992,
PM_list_2.xlsx,PM_images_list_2.xlsx,cue words2.xlsx,cue images2.xlsx,recog_task2.xlsx,recog_task_images2.xlsx,,abuse,,,None,,l,,,,,,,,,,,,,0,1,1,1,,,,,,,,,,,,,,,,,,,,,0,2,2,5,,,,,,,,,,,,,,,,,,l,1,0.7033439858350903,,,,,,,,123,A,2,2019_Jun_30_2049,PM,3.0.6,59.7872222955992,
PM_list_2.xlsx,PM_images_list_2.xlsx,cue words2.xlsx,cue images2.xlsx,recog_task2.xlsx,recog_task_images2.xlsx,,python,,,NeuH2,,d,,,,,,,,,,,,,0,1,1,1,,,,,,,,,,,,,,,,,,,,,0,3,3,6,,,,,,,,,,,,,,,,,,d,1,0.4862193313892931,,,,,,,,123,A,2,2019_Jun_30_2049,PM,3.0.6,59.7872222955992,
PM_list_2.xlsx,PM_images_list_2.xlsx,cue words2.xlsx,cue images2.xlsx,recog_task2.xlsx,recog_task_images2.xlsx,,cyclone,,,None,,l,,,,,,,,,,,,,0,1,1,1,,,,,,,,,,,,,,,,,,,,,0,4,4,4,,,,,,,,,,,,,,,,,,l,1,0.6876433081924915,,,,,,,,123,A,2,2019_Jun_30_2049,PM,3.0.6,59.7872222955992,
PM_list_2.xlsx,PM_images_list_2.xlsx,cue words2.xlsx,cue images2.xlsx,recog_task2.xlsx,recog_task_images2.xlsx,,divorce,,,NegL2,,d,,,,,,,,,,,,,0,1,1,1,,,,,,,,,,,,,,,,,,,,,0,5,5,12,,,,,,,,,,,,,,,,,,l,0,0.7871575352037326,,,,,,,,123,A,2,2019_Jun_30_2049,PM,3.0.6,59.7872222955992,
PM_list_2.xlsx,PM_images_list_2.xlsx,cue words2.xlsx,cue images2.xlsx,recog_task2.xlsx,recog_task_images2.xlsx,,timid,,,None,,l,,,,,,,,,,,,,0,1,1,1,,,,,,,,,,,,,,,,,,,,,0,6,6,8,,,,,,,,,,,,,,,,,,l,1,0.7706279142294079,,,,,,,,123,A,2,2019_Jun_30_2049,PM,3.0.6,59.7872222955992,
PM_list_2.xlsx,PM_images_list_2.xlsx,cue words2.xlsx,cue images2.xlsx,recog_task2.xlsx,recog_task_images2.xlsx,,sad,,,None,,l,,,,,,,,,,,,,0,1,1,1,,,,,,,,,,,,,,,,,,,,,0,7,7,13,,,,,,,,,,,,,,,,,,l,1,0.6696455959463492,,,,,,,,123,A,2,2019_Jun_30_2049,PM,3.0.6,59.7872222955992,
PM_list_2.xlsx,PM_images_list_2.xlsx,cue words2.xlsx,cue images2.xlsx,recog_task2.xlsx,recog_task_images2.xlsx,,desire,,,None,,l,,,,,,,,,,,,,0,1,1,1,,,,,,,,,,,,,,,,,,,,,0,8,8,10,,,,,,,,,,,,,,,,,,l,1,0.7035584030672908,,,,,,,,123,A,2,2019_Jun_30_2049,PM,3.0.6,59.7872222955992,
PM_list_2.xlsx,PM_images_list_2.xlsx,cue words2.xlsx,cue images2.xlsx,recog_task2.xlsx,recog_task_images2.xlsx,,impair,,,NegL2,,d,,,,,,,,,,,,,0,1,1,1,,,,,,,,,,,,,,,,,,,,,0,9,9,0,,,,,,,,,,,,,,,,,,d,1,0.8037035707384348,,,,,,,,123,A,2,2019_Jun_30_2049,PM,3.0.6,59.7872222955992,
PM_list_2.xlsx,PM_images_list_2.xlsx,cue words2.xlsx,cue images2.xlsx,recog_task2.xlsx,recog_task_images2.xlsx,,bird,,,None,,l,,,,,,,,,,,,,0,1,1,1,,,,,,,,,,,,,,,,,,,,,0,10,10,11,,,,,,,,,,,,,,,,,,l,1,3.646417744224891,,,,,,,,123,A,2,2019_Jun_30_2049,PM,3.0.6,59.7872222955992,
PM_list_2.xlsx,PM_images_list_2.xlsx,cue words2.xlsx,cue images2.xlsx,recog_task2.xlsx,recog_task_images2.xlsx,,dollar,,,PosH2,,d,,,,,,,,,,,,,0,1,1,1,,,,,,,,,,,,,,,,,,,,,0,11,11,9,,,,,,,,,,,,,,,,,,d,1,0.7867379338713363,,,,,,,,123,A,2,2019_Jun_30_2049,PM,3.0.6,59.7872222955992,
PM_list_2.xlsx,PM_images_list_2.xlsx,cue words2.xlsx,cue images2.xlsx,recog_task2.xlsx,recog_task_images2.xlsx,,crash,,,None,,l,,,,,,,,,,,,,0,1,1,1,,,,,,,,,,,,,,,,,,,,,0,12,12,1,,,,,,,,,,,,,,,,,,l,1,0.6704704356379807,,,,,,,,123,A,2,2019_Jun_30_2049,PM,3.0.6,59.7872222955992,
PM_list_2.xlsx,PM_images_list_2.xlsx,cue words2.xlsx,cue images2.xlsx,recog_task2.xlsx,recog_task_images2.xlsx,,assault,,,None,,l,,,,,,,,,,,,,0,1,1,1,,,,,,,,,,,,,,,,,,,,,0,13,13,7,,,,,,,,,,,,,,,,,,l,1,0.6028684719931334,,,,,,,,123,A,2,2019_Jun_30_2049,PM,3.0.6,59.7872222955992,
PM_list_2.xlsx,PM_images_list_2.xlsx,cue words2.xlsx,cue images2.xlsx,recog_task2.xlsx,recog_task_images2.xlsx,,table,,,NeuL2,,d,,,,,,,,,,,,,0,1,1,1,,,,,,,,,,,,,,,,,,,,,0,14,14,3,,,,,,,,,,,,,,,,,,d,1,0.6868584795156494,,,,,,,,123,A,2,2019_Jun_30_2049,PM,3.0.6,59.7872222955992,
PM_list_2.xlsx,PM_images_list_2.xlsx,cue words2.xlsx,cue images2.xlsx,recog_task2.xlsx,recog_task_images2.xlsx,,bunny,,,None,,l,,,,,,,,,,,,,0,1,1,1,,,,,,,,,,,,,,,,,,,,,0,15,15,14,,,,,,,,,,,,,,,,,,d,0,0.5528600080870092,,,,,,,,123,A,2,2019_Jun_30_2049,PM,3.0.6,59.7872222955992,
PM_list_2.xlsx,PM_images_list_2.xlsx,cue words2.xlsx,cue images2.xlsx,recog_task2.xlsx,recog_task_images2.xlsx,,admired,,,None,,l,,,,,,,,,,,,,0,1,1,1,,,,,,,,,,,,,,,,,,,,,0,16,16,15,,,,,,,,,,,,,,,,,,l,1,0.9033450117567554,,,,,,,,123,A,2,2019_Jun_30_2049,PM,3.0.6,59.7872222955992,
,,,,,,,,,,,,,None,Pictures/4625.jpg,7,PosH2,,,,,,,,,,,,,,,,,,,,,,,,,,,,,,,,,,,,,,,,,0,0,0,0,0,0,0,19,,,,,,,,,2.0,5.670271407114342,26.0,2.563831195118837,,,,123,A,2,2019_Jun_30_2049,PM,3.0.6,59.7872222955992,
,,,,,,,,,,,,,startled,None,6,NeuH1,,,,,,,,,,,,,,,,,,,,,,,,,,,,,,,,,,,,,,,,,0,0,0,0,0,1,1,2,,,,,,,,,50.0,3.4000287257367745,50.0,0.9208020641235635,,,,123,A,2,2019_Jun_30_2049,PM,3.0.6,59.7872222955992,
,,,,,,,,,,,,,None,Pictures/2722.jpg,2,NegL2,,,,,,,,,,,,,,,,,,,,,,,,,,,,,,,,,,,,,,,,,0,0,0,0,0,2,2,22,,,,,,,,,73.0,2.3065746075008065,49.0,1.4370675106765702,,,,123,A,2,2019_Jun_30_2049,PM,3.0.6,59.7872222955992,
,,,,,,,,,,,,,None,Pictures/3550.jpg,5,NegH2,,,,,,,,,,,,,,,,,,,,,,,,,,,,,,,,,,,,,,,,,0,0,0,0,0,3,3,23,,,,,,,,,99.0,2.643072219681926,2.0,2.256605128524825,,,,123,A,2,2019_Jun_30_2049,PM,3.0.6,59.7872222955992,
,,,,,,,,,,,,,statue,None,3,NeuL1,,,,,,,,,,,,,,,,,,,,,,,,,,,,,,,,,,,,,,,,,0,0,0,0,0,4,4,3,,,,,,,,,50.0,1.9184763038065284,50.0,0.8878864512080327,,,,123,A,2,2019_Jun_30_2049,PM,3.0.6,59.7872222955992,
,,,,,,,,,,,,,divorce,None,7,NeuH2,,,,,,,,,,,,,,,,,,,,,,,,,,,,,,,,,,,,,,,,,0,0,0,0,0,5,5,8,,,,,,,,,74.0,2.83247241564095,74.0,1.2654926724499092,,,,123,A,2,2019_Jun_30_2049,PM,3.0.6,59.7872222955992,
