condFile,condFileIm,cueFile,cueFileIm,recogFile,recogFileIm,cues,word,CORRanswer,trialtype,valArous,block,corrAnsw,words,images,trialType,ValArous,Panas_routine.thisRepN,Panas_routine.thisTrialN,Panas_routine.thisN,Panas_routine.thisIndex,skip_routine.thisRepN,skip_routine.thisTrialN,skip_routine.thisN,skip_routine.thisIndex,Group.thisRepN,Group.thisTrialN,Group.thisN,Group.thisIndex,loop_cues.thisRepN,loop_cues.thisTrialN,loop_cues.thisN,loop_cues.thisIndex,loop_cues2.thisRepN,loop_cues2.thisTrialN,loop_cues2.thisN,loop_cues2.thisIndex,instruction_wordfirst.thisRepN,instruction_wordfirst.thisTrialN,instruction_wordfirst.thisN,instruction_wordfirst.thisIndex,instruction_image_first.thisRepN,instruction_image_first.thisTrialN,instruction_image_first.thisN,instruction_image_first.thisIndex,PM_task_loop.thisRepN,PM_task_loop.thisTrialN,PM_task_loop.thisN,PM_task_loop.thisIndex,recog_task_loop.thisRepN,recog_task_loop.thisTrialN,recog_task_loop.thisN,recog_task_loop.thisIndex,trials_3.thisRepN,trials_3.thisTrialN,trials_3.thisN,trials_3.thisIndex,finalLoop.thisRepN,finalLoop.thisTrialN,finalLoop.thisN,finalLoop.thisIndex,SAMratings.thisRepN,SAMratings.thisTrialN,SAMratings.thisN,SAMratings.thisIndex,key_resp_PM.keys,key_resp_PM.corr,key_resp_PM.rt,key_resp_PM.lenient,key_resp_PM.rtFirst,key_resp_18.keys,key_resp_18.corr,key_resp_18.rt,slider_valence.response,slider_valence.rt,slider_arousal.response,slider_arousal.rt,key_resp_23.keys,key_resp_23.corr,key_resp_23.rt,participant,Group,session,date,expName,psychopyVersion,frameRate,
PM_list_1.xlsx,PM_images_list_1.xlsx,cue words.xlsx,cue images.xlsx,recog_task.xlsx,recog_task_images1.xlsx,birthday,,,,,,,,,,,,,,,,,,,0,0,0,0,0,0,0,4,,,,,,,,,,,,,,,,,,,,,,,,,,,,,,,,,,,,,,,,,,,,,,,,99,A,2,2019_Jun_29_1442,PM,3.0.6,59.60654860307223,
PM_list_1.xlsx,PM_images_list_1.xlsx,cue words.xlsx,cue images.xlsx,recog_task.xlsx,recog_task_images1.xlsx,startled,,,,,,,,,,,,,,,,,,,0,0,0,0,0,1,1,2,,,,,,,,,,,,,,,,,,,,,,,,,,,,,,,,,,,,,,,,,,,,,,,,99,A,2,2019_Jun_29_1442,PM,3.0.6,59.60654860307223,
PM_list_1.xlsx,PM_images_list_1.xlsx,cue words.xlsx,cue images.xlsx,recog_task.xlsx,recog_task_images1.xlsx,bunny,,,,,,,,,,,,,,,,,,,0,0,0,0,0,2,2,0,,,,,,,,,,,,,,,,,,,,,,,,,,,,,,,,,,,,,,,,,,,,,,,,99,A,2,2019_Jun_29_1442,PM,3.0.6,59.60654860307223,
PM_list_1.xlsx,PM_images_list_1.xlsx,cue words.xlsx,cue images.xlsx,recog_task.xlsx,recog_task_images1.xlsx,coward,,,,,,,,,,,,,,,,,,,0,0,0,0,0,3,3,5,,,,,,,,,,,,,,,,,,,,,,,,,,,,,,,,,,,,,,,,,,,,,,,,99,A,2,2019_Jun_29_1442,PM,3.0.6,59.60654860307223,
PM_list_1.xlsx,PM_images_list_1.xlsx,cue words.xlsx,cue images.xlsx,recog_task.xlsx,recog_task_images1.xlsx,statue,,,,,,,,,,,,,,,,,,,0,0,0,0,0,4,4,3,,,,,,,,,,,,,,,,,,,,,,,,,,,,,,,,,,,,,,,,,,,,,,,,99,A,2,2019_Jun_29_1442,PM,3.0.6,59.60654860307223,
PM_list_1.xlsx,PM_images_list_1.xlsx,cue words.xlsx,cue images.xlsx,recog_task.xlsx,recog_task_images1.xlsx,afraid,,,,,,,,,,,,,,,,,,,0,0,0,0,0,5,5,1,,,,,,,,,,,,,,,,,,,,,,,,,,,,,,,,,,,,,,,,,,,,,,,,99,A,2,2019_Jun_29_1442,PM,3.0.6,59.60654860307223,
PM_list_1.xlsx,PM_images_list_1.xlsx,cue words.xlsx,cue images.xlsx,recog_task.xlsx,recog_task_images1.xlsx,startled,,,,,,,,,,,,,,,,,,,0,0,0,0,,,,,0,0,0,2,,,,,,,,,,,,,,,,,,,,,,,,,,,,,,,,,,,,,,,,,,,,99,A,2,2019_Jun_29_1442,PM,3.0.6,59.60654860307223,
PM_list_1.xlsx,PM_images_list_1.xlsx,cue words.xlsx,cue images.xlsx,recog_task.xlsx,recog_task_images1.xlsx,coward,,,,,,,,,,,,,,,,,,,0,0,0,0,,,,,0,1,1,5,,,,,,,,,,,,,,,,,,,,,,,,,,,,,,,,,,,,,,,,,,,,99,A,2,2019_Jun_29_1442,PM,3.0.6,59.60654860307223,
PM_list_1.xlsx,PM_images_list_1.xlsx,cue words.xlsx,cue images.xlsx,recog_task.xlsx,recog_task_images1.xlsx,bunny,,,,,,,,,,,,,,,,,,,0,0,0,0,,,,,0,2,2,0,,,,,,,,,,,,,,,,,,,,,,,,,,,,,,,,,,,,,,,,,,,,99,A,2,2019_Jun_29_1442,PM,3.0.6,59.60654860307223,
PM_list_1.xlsx,PM_images_list_1.xlsx,cue words.xlsx,cue images.xlsx,recog_task.xlsx,recog_task_images1.xlsx,birthday,,,,,,,,,,,,,,,,,,,0,0,0,0,,,,,0,3,3,4,,,,,,,,,,,,,,,,,,,,,,,,,,,,,,,,,,,,,,,,,,,,99,A,2,2019_Jun_29_1442,PM,3.0.6,59.60654860307223,
PM_list_1.xlsx,PM_images_list_1.xlsx,cue words.xlsx,cue images.xlsx,recog_task.xlsx,recog_task_images1.xlsx,statue,,,,,,,,,,,,,,,,,,,0,0,0,0,,,,,0,4,4,3,,,,,,,,,,,,,,,,,,,,,,,,,,,,,,,,,,,,,,,,,,,,99,A,2,2019_Jun_29_1442,PM,3.0.6,59.60654860307223,
PM_list_1.xlsx,PM_images_list_1.xlsx,cue words.xlsx,cue images.xlsx,recog_task.xlsx,recog_task_images1.xlsx,afraid,,,,,,,,,,,,,,,,,,,0,0,0,0,,,,,0,5,5,1,,,,,,,,,,,,,,,,,,,,,,,,,,,,,,,,,,,,,,,,,,,,99,A,2,2019_Jun_29_1442,PM,3.0.6,59.60654860307223,
PM_list_1.xlsx,PM_images_list_1.xlsx,cue words.xlsx,cue images.xlsx,recog_task.xlsx,recog_task_images1.xlsx,,,,,,,,,,,,,,,,,,,,0,0,0,0,,,,,,,,,,,,,0,0,0,0,,,,,,,,,,,,,,,,,,,,,,,,,,,,,,,,,,,,99,A,2,2019_Jun_29_1442,PM,3.0.6,59.60654860307223,
PM_list_1.xlsx,PM_images_list_1.xlsx,cue words.xlsx,cue images.xlsx,recog_task.xlsx,recog_task_images1.xlsx,,bless,l,0,NoHit,1,,,,,,,,,,,,,,0,0,0,0,,,,,,,,,,,,,,,,,0,0,0,0,,,,,,,,,,,,,,,,,None,0,[],[],,,,,,,,,,,,99,A,2,2019_Jun_29_1442,PM,3.0.6,59.60654860307223,
PM_list_1.xlsx,PM_images_list_1.xlsx,cue words.xlsx,cue images.xlsx,recog_task.xlsx,recog_task_images1.xlsx,,nature,l,0,NoHit,1,,,,,,,,,,,,,,0,0,0,0,,,,,,,,,,,,,,,,,0,1,1,1,,,,,,,,,,,,,,,,,None,0,[],[],,,,,,,,,,,,99,A,2,2019_Jun_29_1442,PM,3.0.6,59.60654860307223,
PM_list_1.xlsx,PM_images_list_1.xlsx,cue words.xlsx,cue images.xlsx,recog_task.xlsx,recog_task_images1.xlsx,,carefree,l,0,NoHit,1,,,,,,,,,,,,,,0,0,0,0,,,,,,,,,,,,,,,,,0,2,2,2,,,,,,,,,,,,,,,,,None,0,[],[],,,,,,,,,,,,99,A,2,2019_Jun_29_1442,PM,3.0.6,59.60654860307223,
PM_list_1.xlsx,PM_images_list_1.xlsx,cue words.xlsx,cue images.xlsx,recog_task.xlsx,recog_task_images1.xlsx,,nature,d,1,Hit,1,,,,,,,,,,,,,,0,0,0,0,,,,,,,,,,,,,,,,,0,3,3,3,,,,,,,,,,,,,,,,,['d'],1,[1.2822413052781485],[],1.2822413052781485,,,,,,,,,,,99,A,2,2019_Jun_29_1442,PM,3.0.6,59.60654860307223,
PM_list_1.xlsx,PM_images_list_1.xlsx,cue words.xlsx,cue images.xlsx,recog_task.xlsx,recog_task_images1.xlsx,,easygoing,l,0,NoHit,1,,,,,,,,,,,,,,0,0,0,0,,,,,,,,,,,,,,,,,0,4,4,4,,,,,,,,,,,,,,,,,None,0,[],[],,,,,,,,,,,,99,A,2,2019_Jun_29_1442,PM,3.0.6,59.60654860307223,
PM_list_1.xlsx,PM_images_list_1.xlsx,cue words.xlsx,cue images.xlsx,recog_task.xlsx,recog_task_images1.xlsx,,pillow,l,0,NoHit,1,,,,,,,,,,,,,,0,0,0,0,,,,,,,,,,,,,,,,,0,5,5,5,,,,,,,,,,,,,,,,,None,0,[],[],,,,,,,,,,,,99,A,2,2019_Jun_29_1442,PM,3.0.6,59.60654860307223,
PM_list_1.xlsx,PM_images_list_1.xlsx,cue words.xlsx,cue images.xlsx,recog_task.xlsx,recog_task_images1.xlsx,,easygoing,d,1,Hit,1,,,,,,,,,,,,,,0,0,0,0,,,,,,,,,,,,,,,,,0,6,6,6,,,,,,,,,,,,,,,,,None,0,[],[],,,,,,,,,,,,99,A,2,2019_Jun_29_1442,PM,3.0.6,59.60654860307223,
PM_list_1.xlsx,PM_images_list_1.xlsx,cue words.xlsx,cue images.xlsx,recog_task.xlsx,recog_task_images1.xlsx,,gentle,l,0,NoHit,1,,,,,,,,,,,,,,0,0,0,0,,,,,,,,,,,,,,,,,0,7,7,7,,,,,,,,,,,,,,,,,None,0,[],[],,,,,,,,,,,,99,A,2,2019_Jun_29_1442,PM,3.0.6,59.60654860307223,
PM_list_1.xlsx,PM_images_list_1.xlsx,cue words.xlsx,cue images.xlsx,recog_task.xlsx,recog_task_images1.xlsx,,square,l,0,NoHit,1,,,,,,,,,,,,,,0,0,0,0,,,,,,,,,,,,,,,,,0,8,8,8,,,,,,,,,,,,,,,,,None,0,[],[],,,,,,,,,,,,99,A,2,2019_Jun_29_1442,PM,3.0.6,59.60654860307223,
PM_list_1.xlsx,PM_images_list_1.xlsx,cue words.xlsx,cue images.xlsx,recog_task.xlsx,recog_task_images1.xlsx,,gentle,d,1,Hit,1,,,,,,,,,,,,,,0,0,0,0,,,,,,,,,,,,,,,,,0,9,9,9,,,,,,,,,,,,,,,,,None,0,[],[],,,,,,,,,,,,99,A,2,2019_Jun_29_1442,PM,3.0.6,59.60654860307223,
PM_list_1.xlsx,PM_images_list_1.xlsx,cue words.xlsx,cue images.xlsx,recog_task.xlsx,recog_task_images1.xlsx,,birthday,h,5,PosH1,1,,,,,,,,,,,,,,0,0,0,0,,,,,,,,,,,,,,,,,0,10,10,10,,,,,,,,,,,,,,,,,None,0,[],0,,,,,,,,,,,,99,A,2,2019_Jun_29_1442,PM,3.0.6,59.60654860307223,
PM_list_1.xlsx,PM_images_list_1.xlsx,cue words.xlsx,cue images.xlsx,recog_task.xlsx,recog_task_images1.xlsx,,carefree,l,0,NoHit,1,,,,,,,,,,,,,,0,0,0,0,,,,,,,,,,,,,,,,,0,11,11,11,,,,,,,,,,,,,,,,,None,0,[],[],,,,,,,,,,,,99,A,2,2019_Jun_29_1442,PM,3.0.6,59.60654860307223,
PM_list_1.xlsx,PM_images_list_1.xlsx,cue words.xlsx,cue images.xlsx,recog_task.xlsx,recog_task_images1.xlsx,,tool,l,0,NoHit,1,,,,,,,,,,,,,,0,0,0,0,,,,,,,,,,,,,,,,,0,12,12,12,,,,,,,,,,,,,,,,,None,0,[],[],,,,,,,,,,,,99,A,2,2019_Jun_29_1442,PM,3.0.6,59.60654860307223,
PM_list_1.xlsx,PM_images_list_1.xlsx,cue words.xlsx,cue images.xlsx,recog_task.xlsx,recog_task_images1.xlsx,,bored,l,0,NoHit,1,,,,,,,,,,,,,,0,0,0,0,,,,,,,,,,,,,,,,,0,13,13,13,,,,,,,,,,,,,,,,,None,0,[],[],,,,,,,,,,,,99,A,2,2019_Jun_29_1442,PM,3.0.6,59.60654860307223,
PM_list_1.xlsx,PM_images_list_1.xlsx,cue words.xlsx,cue images.xlsx,recog_task.xlsx,recog_task_images1.xlsx,,tool,d,1,Hit,1,,,,,,,,,,,,,,0,0,0,0,,,,,,,,,,,,,,,,,0,14,14,14,,,,,,,,,,,,,,,,,None,0,[],[],,,,,,,,,,,,99,A,2,2019_Jun_29_1442,PM,3.0.6,59.60654860307223,
PM_list_1.xlsx,PM_images_list_1.xlsx,cue words.xlsx,cue images.xlsx,recog_task.xlsx,recog_task_images1.xlsx,,home,l,0,NoHit,1,,,,,,,,,,,,,,0,0,0,0,,,,,,,,,,,,,,,,,0,15,15,15,,,,,,,,,,,,,,,,,None,0,[],[],,,,,,,,,,,,99,A,2,2019_Jun_29_1442,PM,3.0.6,59.60654860307223,
PM_list_1.xlsx,PM_images_list_1.xlsx,cue words.xlsx,cue images.xlsx,recog_task.xlsx,recog_task_images1.xlsx,,immature,l,0,NoHit,1,,,,,,,,,,,,,,0,0,0,0,,,,,,,,,,,,,,,,,0,16,16,16,,,,,,,,,,,,,,,,,None,0,[],[],,,,,,,,,,,,99,A,2,2019_Jun_29_1442,PM,3.0.6,59.60654860307223,
PM_list_1.xlsx,PM_images_list_1.xlsx,cue words.xlsx,cue images.xlsx,recog_task.xlsx,recog_task_images1.xlsx,,home,d,1,Hit,1,,,,,,,,,,,,,,0,0,0,0,,,,,,,,,,,,,,,,,0,17,17,17,,,,,,,,,,,,,,,,,None,0,[],[],,,,,,,,,,,,99,A,2,2019_Jun_29_1442,PM,3.0.6,59.60654860307223,
PM_list_1.xlsx,PM_images_list_1.xlsx,cue words.xlsx,cue images.xlsx,recog_task.xlsx,recog_task_images1.xlsx,,fault,l,0,NoHit,1,,,,,,,,,,,,,,0,0,0,0,,,,,,,,,,,,,,,,,0,18,18,18,,,,,,,,,,,,,,,,,None,0,[],[],,,,,,,,,,,,99,A,2,2019_Jun_29_1442,PM,3.0.6,59.60654860307223,
PM_list_1.xlsx,PM_images_list_1.xlsx,cue words.xlsx,cue images.xlsx,recog_task.xlsx,recog_task_images1.xlsx,,pillow,l,0,NoHit,1,,,,,,,,,,,,,,0,0,0,0,,,,,,,,,,,,,,,,,0,19,19,19,,,,,,,,,,,,,,,,,None,0,[],[],,,,,,,,,,,,99,A,2,2019_Jun_29_1442,PM,3.0.6,59.60654860307223,
PM_list_1.xlsx,PM_images_list_1.xlsx,cue words.xlsx,cue images.xlsx,recog_task.xlsx,recog_task_images1.xlsx,,violin,l,0,NoHit,1,,,,,,,,,,,,,,0,0,0,0,,,,,,,,,,,,,,,,,0,20,20,20,,,,,,,,,,,,,,,,,None,0,[],[],,,,,,,,,,,,99,A,2,2019_Jun_29_1442,PM,3.0.6,59.60654860307223,
PM_list_1.xlsx,PM_images_list_1.xlsx,cue words.xlsx,cue images.xlsx,recog_task.xlsx,recog_task_images1.xlsx,,statue,h,3,NeuL1,1,,,,,,,,,,,,,,0,0,0,0,,,,,,,,,,,,,,,,,0,21,21,21,,,,,,,,,,,,,,,,,None,0,[],0,,,,,,,,,,,,99,A,2,2019_Jun_29_1442,PM,3.0.6,59.60654860307223,
PM_list_1.xlsx,PM_images_list_1.xlsx,cue words.xlsx,cue images.xlsx,recog_task.xlsx,recog_task_images1.xlsx,,violin,d,1,Hit,1,,,,,,,,,,,,,,0,0,0,0,,,,,,,,,,,,,,,,,0,22,22,22,,,,,,,,,,,,,,,,,None,0,[],[],,,,,,,,,,,,99,A,2,2019_Jun_29_1442,PM,3.0.6,59.60654860307223,
PM_list_1.xlsx,PM_images_list_1.xlsx,cue words.xlsx,cue images.xlsx,recog_task.xlsx,recog_task_images1.xlsx,,tense,l,0,NoHit,1,,,,,,,,,,,,,,0,0,0,0,,,,,,,,,,,,,,,,,0,23,23,23,,,,,,,,,,,,,,,,,None,0,[],[],,,,,,,,,,,,99,A,2,2019_Jun_29_1442,PM,3.0.6,59.60654860307223,
PM_list_1.xlsx,PM_images_list_1.xlsx,cue words.xlsx,cue images.xlsx,recog_task.xlsx,recog_task_images1.xlsx,,confident,l,0,NoHit,1,,,,,,,,,,,,,,0,0,0,0,,,,,,,,,,,,,,,,,0,24,24,24,,,,,,,,,,,,,,,,,None,0,[],[],,,,,,,,,,,,99,A,2,2019_Jun_29_1442,PM,3.0.6,59.60654860307223,
PM_list_1.xlsx,PM_images_list_1.xlsx,cue words.xlsx,cue images.xlsx,recog_task.xlsx,recog_task_images1.xlsx,,bomb,l,0,NoHit,1,,,,,,,,,,,,,,0,0,0,0,,,,,,,,,,,,,,,,,0,25,25,25,,,,,,,,,,,,,,,,,None,0,[],[],,,,,,,,,,,,99,A,2,2019_Jun_29_1442,PM,3.0.6,59.60654860307223,
PM_list_1.xlsx,PM_images_list_1.xlsx,cue words.xlsx,cue images.xlsx,recog_task.xlsx,recog_task_images1.xlsx,,confident,d,1,Hit,1,,,,,,,,,,,,,,0,0,0,0,,,,,,,,,,,,,,,,,0,26,26,26,,,,,,,,,,,,,,,,,None,0,[],[],,,,,,,,,,,,99,A,2,2019_Jun_29_1442,PM,3.0.6,59.60654860307223,
PM_list_1.xlsx,PM_images_list_1.xlsx,cue words.xlsx,cue images.xlsx,recog_task.xlsx,recog_task_images1.xlsx,,butterfly,l,0,NoHit,1,,,,,,,,,,,,,,0,0,0,0,,,,,,,,,,,,,,,,,0,27,27,27,,,,,,,,,,,,,,,,,None,0,[],[],,,,,,,,,,,,99,A,2,2019_Jun_29_1442,PM,3.0.6,59.60654860307223,
PM_list_1.xlsx,PM_images_list_1.xlsx,cue words.xlsx,cue images.xlsx,recog_task.xlsx,recog_task_images1.xlsx,,cheer,l,0,NoHit,1,,,,,,,,,,,,,,0,0,0,0,,,,,,,,,,,,,,,,,0,28,28,28,,,,,,,,,,,,,,,,,None,0,[],[],,,,,,,,,,,,99,A,2,2019_Jun_29_1442,PM,3.0.6,59.60654860307223,
PM_list_1.xlsx,PM_images_list_1.xlsx,cue words.xlsx,cue images.xlsx,recog_task.xlsx,recog_task_images1.xlsx,,street,l,0,NoHit,1,,,,,,,,,,,,,,0,0,0,0,,,,,,,,,,,,,,,,,0,29,29,29,,,,,,,,,,,,,,,,,None,0,[],[],,,,,,,,,,,,99,A,2,2019_Jun_29_1442,PM,3.0.6,59.60654860307223,
PM_list_1.xlsx,PM_images_list_1.xlsx,cue words.xlsx,cue images.xlsx,recog_task.xlsx,recog_task_images1.xlsx,,cheer,d,1,Hit,1,,,,,,,,,,,,,,0,0,0,0,,,,,,,,,,,,,,,,,0,30,30,30,,,,,,,,,,,,,,,,,None,0,[],[],,,,,,,,,,,,99,A,2,2019_Jun_29_1442,PM,3.0.6,59.60654860307223,
PM_list_1.xlsx,PM_images_list_1.xlsx,cue words.xlsx,cue images.xlsx,recog_task.xlsx,recog_task_images1.xlsx,,coward,h,4,NegL1,1,,,,,,,,,,,,,,0,0,0,0,,,,,,,,,,,,,,,,,0,31,31,31,,,,,,,,,,,,,,,,,None,0,[],0,,,,,,,,,,,,99,A,2,2019_Jun_29_1442,PM,3.0.6,59.60654860307223,
PM_list_1.xlsx,PM_images_list_1.xlsx,cue words.xlsx,cue images.xlsx,recog_task.xlsx,recog_task_images1.xlsx,,taxi,l,0,NoHit,1,,,,,,,,,,,,,,0,0,0,0,,,,,,,,,,,,,,,,,0,32,32,32,,,,,,,,,,,,,,,,,None,0,[],[],,,,,,,,,,,,99,A,2,2019_Jun_29_1442,PM,3.0.6,59.60654860307223,
PM_list_1.xlsx,PM_images_list_1.xlsx,cue words.xlsx,cue images.xlsx,recog_task.xlsx,recog_task_images1.xlsx,,adventure,l,0,NoHit,1,,,,,,,,,,,,,,0,0,0,0,,,,,,,,,,,,,,,,,0,33,33,33,,,,,,,,,,,,,,,,,None,0,[],[],,,,,,,,,,,,99,A,2,2019_Jun_29_1442,PM,3.0.6,59.60654860307223,
PM_list_1.xlsx,PM_images_list_1.xlsx,cue words.xlsx,cue images.xlsx,recog_task.xlsx,recog_task_images1.xlsx,,crutch,l,0,NoHit,1,,,,,,,,,,,,,,0,0,0,0,,,,,,,,,,,,,,,,,0,34,34,34,,,,,,,,,,,,,,,,,None,0,[],[],,,,,,,,,,,,99,A,2,2019_Jun_29_1442,PM,3.0.6,59.60654860307223,
PM_list_1.xlsx,PM_images_list_1.xlsx,cue words.xlsx,cue images.xlsx,recog_task.xlsx,recog_task_images1.xlsx,,adventure,d,1,Hit,1,,,,,,,,,,,,,,0,0,0,0,,,,,,,,,,,,,,,,,0,35,35,35,,,,,,,,,,,,,,,,,None,0,[],[],,,,,,,,,,,,99,A,2,2019_Jun_29_1442,PM,3.0.6,59.60654860307223,
PM_list_1.xlsx,PM_images_list_1.xlsx,cue words.xlsx,cue images.xlsx,recog_task.xlsx,recog_task_images1.xlsx,,vest,l,0,NoHit,1,,,,,,,,,,,,,,0,0,0,0,,,,,,,,,,,,,,,,,0,36,36,36,,,,,,,,,,,,,,,,,None,0,[],[],,,,,,,,,,,,99,A,2,2019_Jun_29_1442,PM,3.0.6,59.60654860307223,
PM_list_1.xlsx,PM_images_list_1.xlsx,cue words.xlsx,cue images.xlsx,recog_task.xlsx,recog_task_images1.xlsx,,taxi,l,0,NoHit,1,,,,,,,,,,,,,,0,0,0,0,,,,,,,,,,,,,,,,,0,37,37,37,,,,,,,,,,,,,,,,,None,0,[],[],,,,,,,,,,,,99,A,2,2019_Jun_29_1442,PM,3.0.6,59.60654860307223,
PM_list_1.xlsx,PM_images_list_1.xlsx,cue words.xlsx,cue images.xlsx,recog_task.xlsx,recog_task_images1.xlsx,,brave,l,0,NoHit,1,,,,,,,,,,,,,,0,0,0,0,,,,,,,,,,,,,,,,,0,38,38,38,,,,,,,,,,,,,,,,,None,0,[],[],,,,,,,,,,,,99,A,2,2019_Jun_29_1442,PM,3.0.6,59.60654860307223,
PM_list_1.xlsx,PM_images_list_1.xlsx,cue words.xlsx,cue images.xlsx,recog_task.xlsx,recog_task_images1.xlsx,,square,l,0,NoHit,1,,,,,,,,,,,,,,0,0,0,0,,,,,,,,,,,,,,,,,0,39,39,39,,,,,,,,,,,,,,,,,None,0,[],[],,,,,,,,,,,,99,A,2,2019_Jun_29_1442,PM,3.0.6,59.60654860307223,
PM_list_1.xlsx,PM_images_list_1.xlsx,cue words.xlsx,cue images.xlsx,recog_task.xlsx,recog_task_images1.xlsx,,brave,d,1,Hit,1,,,,,,,,,,,,,,0,0,0,0,,,,,,,,,,,,,,,,,0,40,40,40,,,,,,,,,,,,,,,,,None,0,[],[],,,,,,,,,,,,99,A,2,2019_Jun_29_1442,PM,3.0.6,59.60654860307223,
PM_list_1.xlsx,PM_images_list_1.xlsx,cue words.xlsx,cue images.xlsx,recog_task.xlsx,recog_task_images1.xlsx,,unhappy,l,0,NoHit,1,,,,,,,,,,,,,,0,0,0,0,,,,,,,,,,,,,,,,,0,41,41,41,,,,,,,,,,,,,,,,,None,0,[],[],,,,,,,,,,,,99,A,2,2019_Jun_29_1442,PM,3.0.6,59.60654860307223,
PM_list_1.xlsx,PM_images_list_1.xlsx,cue words.xlsx,cue images.xlsx,recog_task.xlsx,recog_task_images1.xlsx,,startled,h,6,NeuH1,1,,,,,,,,,,,,,,0,0,0,0,,,,,,,,,,,,,,,,,0,42,42,42,,,,,,,,,,,,,,,,,None,0,[],0,,,,,,,,,,,,99,A,2,2019_Jun_29_1442,PM,3.0.6,59.60654860307223,
PM_list_1.xlsx,PM_images_list_1.xlsx,cue words.xlsx,cue images.xlsx,recog_task.xlsx,recog_task_images1.xlsx,,deformed,l,0,NoHit,1,,,,,,,,,,,,,,0,0,0,0,,,,,,,,,,,,,,,,,0,43,43,43,,,,,,,,,,,,,,,,,None,0,[],[],,,,,,,,,,,,99,A,2,2019_Jun_29_1442,PM,3.0.6,59.60654860307223,
PM_list_1.xlsx,PM_images_list_1.xlsx,cue words.xlsx,cue images.xlsx,recog_task.xlsx,recog_task_images1.xlsx,,rifle,l,0,NoHit,1,,,,,,,,,,,,,,0,0,0,0,,,,,,,,,,,,,,,,,0,44,44,44,,,,,,,,,,,,,,,,,None,0,[],[],,,,,,,,,,,,99,A,2,2019_Jun_29_1442,PM,3.0.6,59.60654860307223,
PM_list_1.xlsx,PM_images_list_1.xlsx,cue words.xlsx,cue images.xlsx,recog_task.xlsx,recog_task_images1.xlsx,,deformed,d,1,Hit,1,,,,,,,,,,,,,,0,0,0,0,,,,,,,,,,,,,,,,,0,45,45,45,,,,,,,,,,,,,,,,,None,0,[],[],,,,,,,,,,,,99,A,2,2019_Jun_29_1442,PM,3.0.6,59.60654860307223,
PM_list_1.xlsx,PM_images_list_1.xlsx,cue words.xlsx,cue images.xlsx,recog_task.xlsx,recog_task_images1.xlsx,,tense,l,0,NoHit,1,,,,,,,,,,,,,,0,0,0,0,,,,,,,,,,,,,,,,,0,46,46,46,,,,,,,,,,,,,,,,,None,0,[],[],,,,,,,,,,,,99,A,2,2019_Jun_29_1442,PM,3.0.6,59.60654860307223,
PM_list_1.xlsx,PM_images_list_1.xlsx,cue words.xlsx,cue images.xlsx,recog_task.xlsx,recog_task_images1.xlsx,,inferior,l,0,NoHit,1,,,,,,,,,,,,,,0,0,0,0,,,,,,,,,,,,,,,,,0,47,47,47,,,,,,,,,,,,,,,,,None,0,[],[],,,,,,,,,,,,99,A,2,2019_Jun_29_1442,PM,3.0.6,59.60654860307223,
PM_list_1.xlsx,PM_images_list_1.xlsx,cue words.xlsx,cue images.xlsx,recog_task.xlsx,recog_task_images1.xlsx,,exercise,l,0,NoHit,1,,,,,,,,,,,,,,0,0,0,0,,,,,,,,,,,,,,,,,0,48,48,48,,,,,,,,,,,,,,,,,None,0,[],[],,,,,,,,,,,,99,A,2,2019_Jun_29_1442,PM,3.0.6,59.60654860307223,
PM_list_1.xlsx,PM_images_list_1.xlsx,cue words.xlsx,cue images.xlsx,recog_task.xlsx,recog_task_images1.xlsx,,inferior,d,1,Hit,1,,,,,,,,,,,,,,0,0,0,0,,,,,,,,,,,,,,,,,0,49,49,49,,,,,,,,,,,,,,,,,None,0,[],[],,,,,,,,,,,,99,A,2,2019_Jun_29_1442,PM,3.0.6,59.60654860307223,
PM_list_1.xlsx,PM_images_list_1.xlsx,cue words.xlsx,cue images.xlsx,recog_task.xlsx,recog_task_images1.xlsx,,crutch,l,0,NoHit,1,,,,,,,,,,,,,,0,0,0,0,,,,,,,,,,,,,,,,,0,50,50,50,,,,,,,,,,,,,,,,,None,0,[],[],,,,,,,,,,,,99,A,2,2019_Jun_29_1442,PM,3.0.6,59.60654860307223,
PM_list_1.xlsx,PM_images_list_1.xlsx,cue words.xlsx,cue images.xlsx,recog_task.xlsx,recog_task_images1.xlsx,,afraid,h,7,NegH1,1,,,,,,,,,,,,,,0,0,0,0,,,,,,,,,,,,,,,,,0,51,51,51,,,,,,,,,,,,,,,,,None,0,[],0,,,,,,,,,,,,99,A,2,2019_Jun_29_1442,PM,3.0.6,59.60654860307223,
PM_list_1.xlsx,PM_images_list_1.xlsx,cue words.xlsx,cue images.xlsx,recog_task.xlsx,recog_task_images1.xlsx,,obesity,l,0,NoHit,1,,,,,,,,,,,,,,0,0,0,0,,,,,,,,,,,,,,,,,0,52,52,52,,,,,,,,,,,,,,,,,None,0,[],[],,,,,,,,,,,,99,A,2,2019_Jun_29_1442,PM,3.0.6,59.60654860307223,
PM_list_1.xlsx,PM_images_list_1.xlsx,cue words.xlsx,cue images.xlsx,recog_task.xlsx,recog_task_images1.xlsx,,bless,l,0,NoHit,1,,,,,,,,,,,,,,0,0,0,0,,,,,,,,,,,,,,,,,0,53,53,53,,,,,,,,,,,,,,,,,None,0,[],[],,,,,,,,,,,,99,A,2,2019_Jun_29_1442,PM,3.0.6,59.60654860307223,
PM_list_1.xlsx,PM_images_list_1.xlsx,cue words.xlsx,cue images.xlsx,recog_task.xlsx,recog_task_images1.xlsx,,obesity,d,1,Hit,1,,,,,,,,,,,,,,0,0,0,0,,,,,,,,,,,,,,,,,0,54,54,54,,,,,,,,,,,,,,,,,None,0,[],[],,,,,,,,,,,,99,A,2,2019_Jun_29_1442,PM,3.0.6,59.60654860307223,
PM_list_1.xlsx,PM_images_list_1.xlsx,cue words.xlsx,cue images.xlsx,recog_task.xlsx,recog_task_images1.xlsx,,pistol,l,0,NoHit,1,,,,,,,,,,,,,,0,0,0,0,,,,,,,,,,,,,,,,,0,55,55,55,,,,,,,,,,,,,,,,,None,0,[],[],,,,,,,,,,,,99,A,2,2019_Jun_29_1442,PM,3.0.6,59.60654860307223,
PM_list_1.xlsx,PM_images_list_1.xlsx,cue words.xlsx,cue images.xlsx,recog_task.xlsx,recog_task_images1.xlsx,,bored,l,0,NoHit,1,,,,,,,,,,,,,,0,0,0,0,,,,,,,,,,,,,,,,,0,56,56,56,,,,,,,,,,,,,,,,,None,0,[],[],,,,,,,,,,,,99,A,2,2019_Jun_29_1442,PM,3.0.6,59.60654860307223,
PM_list_1.xlsx,PM_images_list_1.xlsx,cue words.xlsx,cue images.xlsx,recog_task.xlsx,recog_task_images1.xlsx,,pity,l,0,NoHit,1,,,,,,,,,,,,,,0,0,0,0,,,,,,,,,,,,,,,,,0,57,57,57,,,,,,,,,,,,,,,,,None,0,[],[],,,,,,,,,,,,99,A,2,2019_Jun_29_1442,PM,3.0.6,59.60654860307223,
PM_list_1.xlsx,PM_images_list_1.xlsx,cue words.xlsx,cue images.xlsx,recog_task.xlsx,recog_task_images1.xlsx,,politeness,l,0,NoHit,1,,,,,,,,,,,,,,0,0,0,0,,,,,,,,,,,,,,,,,0,58,58,58,,,,,,,,,,,,,,,,,None,0,[],[],,,,,,,,,,,,99,A,2,2019_Jun_29_1442,PM,3.0.6,59.60654860307223,
PM_list_1.xlsx,PM_images_list_1.xlsx,cue words.xlsx,cue images.xlsx,recog_task.xlsx,recog_task_images1.xlsx,,pity,d,1,Hit,1,,,,,,,,,,,,,,0,0,0,0,,,,,,,,,,,,,,,,,0,59,59,59,,,,,,,,,,,,,,,,,None,0,[],[],,,,,,,,,,,,99,A,2,2019_Jun_29_1442,PM,3.0.6,59.60654860307223,
PM_list_1.xlsx,PM_images_list_1.xlsx,cue words.xlsx,cue images.xlsx,recog_task.xlsx,recog_task_images1.xlsx,,bunny,h,2,PosL1,1,,,,,,,,,,,,,,0,0,0,0,,,,,,,,,,,,,,,,,0,60,60,60,,,,,,,,,,,,,,,,,None,0,[],0,,,,,,,,,,,,99,A,2,2019_Jun_29_1442,PM,3.0.6,59.60654860307223,
PM_list_1.xlsx,PM_images_list_1.xlsx,cue words.xlsx,cue images.xlsx,recog_task.xlsx,recog_task_images1.xlsx,,beautiful,l,0,NoHit,1,,,,,,,,,,,,,,0,0,0,0,,,,,,,,,,,,,,,,,0,61,61,61,,,,,,,,,,,,,,,,,None,0,[],[],,,,,,,,,,,,99,A,2,2019_Jun_29_1442,PM,3.0.6,59.60654860307223,
PM_list_1.xlsx,PM_images_list_1.xlsx,cue words.xlsx,cue images.xlsx,recog_task.xlsx,recog_task_images1.xlsx,,street,l,0,NoHit,1,,,,,,,,,,,,,,0,0,0,0,,,,,,,,,,,,,,,,,0,62,62,62,,,,,,,,,,,,,,,,,None,0,[],[],,,,,,,,,,,,99,A,2,2019_Jun_29_1442,PM,3.0.6,59.60654860307223,
PM_list_1.xlsx,PM_images_list_1.xlsx,cue words.xlsx,cue images.xlsx,recog_task.xlsx,recog_task_images1.xlsx,,beautiful,d,1,Hit,1,,,,,,,,,,,,,,0,0,0,0,,,,,,,,,,,,,,,,,0,63,63,63,,,,,,,,,,,,,,,,,None,0,[],[],,,,,,,,,,,,99,A,2,2019_Jun_29_1442,PM,3.0.6,59.60654860307223,
PM_list_1.xlsx,PM_images_list_1.xlsx,cue words.xlsx,cue images.xlsx,recog_task.xlsx,recog_task_images1.xlsx,,aroused,l,0,NoHit,1,,,,,,,,,,,,,,0,0,0,0,,,,,,,,,,,,,,,,,0,64,64,64,,,,,,,,,,,,,,,,,None,0,[],[],,,,,,,,,,,,99,A,2,2019_Jun_29_1442,PM,3.0.6,59.60654860307223,
PM_list_1.xlsx,PM_images_list_1.xlsx,cue words.xlsx,cue images.xlsx,recog_task.xlsx,recog_task_images1.xlsx,,demon,l,0,NoHit,1,,,,,,,,,,,,,,0,0,0,0,,,,,,,,,,,,,,,,,0,65,65,65,,,,,,,,,,,,,,,,,None,0,[],[],,,,,,,,,,,,99,A,2,2019_Jun_29_1442,PM,3.0.6,59.60654860307223,
PM_list_1.xlsx,PM_images_list_1.xlsx,cue words.xlsx,cue images.xlsx,recog_task.xlsx,recog_task_images1.xlsx,,aroused,d,1,Hit,1,,,,,,,,,,,,,,0,0,0,0,,,,,,,,,,,,,,,,,0,66,66,66,,,,,,,,,,,,,,,,,None,0,[],[],,,,,,,,,,,,99,A,2,2019_Jun_29_1442,PM,3.0.6,59.60654860307223,
PM_list_1.xlsx,PM_images_list_1.xlsx,cue words.xlsx,cue images.xlsx,recog_task.xlsx,recog_task_images1.xlsx,,cash,l,0,NoHit,1,,,,,,,,,,,,,,0,0,0,0,,,,,,,,,,,,,,,,,0,67,67,67,,,,,,,,,,,,,,,,,None,0,[],[],,,,,,,,,,,,99,A,2,2019_Jun_29_1442,PM,3.0.6,59.60654860307223,
PM_list_1.xlsx,PM_images_list_1.xlsx,cue words.xlsx,cue images.xlsx,recog_task.xlsx,recog_task_images1.xlsx,,immature,l,0,NoHit,1,,,,,,,,,,,,,,0,0,0,0,,,,,,,,,,,,,,,,,0,68,68,68,,,,,,,,,,,,,,,,,None,0,[],[],,,,,,,,,,,,99,A,2,2019_Jun_29_1442,PM,3.0.6,59.60654860307223,
PM_list_1.xlsx,PM_images_list_1.xlsx,cue words.xlsx,cue images.xlsx,recog_task.xlsx,recog_task_images1.xlsx,,cheer,l,0,NoHit,1,,,,,,,,,,,,,,0,0,0,0,,,,,,,,,,,,,,,,,0,69,69,69,,,,,,,,,,,,,,,,,None,0,[],[],,,,,,,,,,,,99,A,2,2019_Jun_29_1442,PM,3.0.6,59.60654860307223,
PM_list_1.xlsx,PM_images_list_1.xlsx,cue words.xlsx,cue images.xlsx,recog_task.xlsx,recog_task_images1.xlsx,,statue,h,3,NeuL1,1,,,,,,,,,,,,,,0,0,0,0,,,,,,,,,,,,,,,,,0,70,70,70,,,,,,,,,,,,,,,,,None,0,[],0,,,,,,,,,,,,99,A,2,2019_Jun_29_1442,PM,3.0.6,59.60654860307223,
PM_list_1.xlsx,PM_images_list_1.xlsx,cue words.xlsx,cue images.xlsx,recog_task.xlsx,recog_task_images1.xlsx,,cheer,d,1,Hit,1,,,,,,,,,,,,,,0,0,0,0,,,,,,,,,,,,,,,,,0,71,71,71,,,,,,,,,,,,,,,,,None,0,[],[],,,,,,,,,,,,99,A,2,2019_Jun_29_1442,PM,3.0.6,59.60654860307223,
PM_list_1.xlsx,PM_images_list_1.xlsx,cue words.xlsx,cue images.xlsx,recog_task.xlsx,recog_task_images1.xlsx,,controlling,l,0,NoHit,1,,,,,,,,,,,,,,0,0,0,0,,,,,,,,,,,,,,,,,0,72,72,72,,,,,,,,,,,,,,,,,None,0,[],[],,,,,,,,,,,,99,A,2,2019_Jun_29_1442,PM,3.0.6,59.60654860307223,
PM_list_1.xlsx,PM_images_list_1.xlsx,cue words.xlsx,cue images.xlsx,recog_task.xlsx,recog_task_images1.xlsx,,messy,l,0,NoHit,1,,,,,,,,,,,,,,0,0,0,0,,,,,,,,,,,,,,,,,0,73,73,73,,,,,,,,,,,,,,,,,None,0,[],[],,,,,,,,,,,,99,A,2,2019_Jun_29_1442,PM,3.0.6,59.60654860307223,
PM_list_1.xlsx,PM_images_list_1.xlsx,cue words.xlsx,cue images.xlsx,recog_task.xlsx,recog_task_images1.xlsx,,cliff,l,0,NoHit,1,,,,,,,,,,,,,,0,0,0,0,,,,,,,,,,,,,,,,,0,74,74,74,,,,,,,,,,,,,,,,,None,0,[],[],,,,,,,,,,,,99,A,2,2019_Jun_29_1442,PM,3.0.6,59.60654860307223,
PM_list_1.xlsx,PM_images_list_1.xlsx,cue words.xlsx,cue images.xlsx,recog_task.xlsx,recog_task_images1.xlsx,,butterfly,l,0,NoHit,1,,,,,,,,,,,,,,0,0,0,0,,,,,,,,,,,,,,,,,0,75,75,75,,,,,,,,,,,,,,,,,None,0,[],[],,,,,,,,,,,,99,A,2,2019_Jun_29_1442,PM,3.0.6,59.60654860307223,
PM_list_1.xlsx,PM_images_list_1.xlsx,cue words.xlsx,cue images.xlsx,recog_task.xlsx,recog_task_images1.xlsx,,cliff,d,1,Hit,1,,,,,,,,,,,,,,0,0,0,0,,,,,,,,,,,,,,,,,0,76,76,76,,,,,,,,,,,,,,,,,None,0,[],[],,,,,,,,,,,,99,A,2,2019_Jun_29_1442,PM,3.0.6,59.60654860307223,
PM_list_1.xlsx,PM_images_list_1.xlsx,cue words.xlsx,cue images.xlsx,recog_task.xlsx,recog_task_images1.xlsx,,erotic,l,0,NoHit,1,,,,,,,,,,,,,,0,0,0,0,,,,,,,,,,,,,,,,,0,77,77,77,,,,,,,,,,,,,,,,,None,0,[],[],,,,,,,,,,,,99,A,2,2019_Jun_29_1442,PM,3.0.6,59.60654860307223,
PM_list_1.xlsx,PM_images_list_1.xlsx,cue words.xlsx,cue images.xlsx,recog_task.xlsx,recog_task_images1.xlsx,,vest,l,0,NoHit,1,,,,,,,,,,,,,,0,0,0,0,,,,,,,,,,,,,,,,,0,78,78,78,,,,,,,,,,,,,,,,,None,0,[],[],,,,,,,,,,,,99,A,2,2019_Jun_29_1442,PM,3.0.6,59.60654860307223,
PM_list_1.xlsx,PM_images_list_1.xlsx,cue words.xlsx,cue images.xlsx,recog_task.xlsx,recog_task_images1.xlsx,,dazzle,l,0,NoHit,1,,,,,,,,,,,,,,0,0,0,0,,,,,,,,,,,,,,,,,0,79,79,79,,,,,,,,,,,,,,,,,None,0,[],[],,,,,,,,,,,,99,A,2,2019_Jun_29_1442,PM,3.0.6,59.60654860307223,
PM_list_1.xlsx,PM_images_list_1.xlsx,cue words.xlsx,cue images.xlsx,recog_task.xlsx,recog_task_images1.xlsx,,disloyal,l,0,NoHit,1,,,,,,,,,,,,,,0,0,0,0,,,,,,,,,,,,,,,,,0,80,80,80,,,,,,,,,,,,,,,,,None,0,[],[],,,,,,,,,,,,99,A,2,2019_Jun_29_1442,PM,3.0.6,59.60654860307223,
PM_list_1.xlsx,PM_images_list_1.xlsx,cue words.xlsx,cue images.xlsx,recog_task.xlsx,recog_task_images1.xlsx,,dazzle,d,1,Hit,1,,,,,,,,,,,,,,0,0,0,0,,,,,,,,,,,,,,,,,0,81,81,81,,,,,,,,,,,,,,,,,None,0,[],[],,,,,,,,,,,,99,A,2,2019_Jun_29_1442,PM,3.0.6,59.60654860307223,
PM_list_1.xlsx,PM_images_list_1.xlsx,cue words.xlsx,cue images.xlsx,recog_task.xlsx,recog_task_images1.xlsx,,birthday,h,5,PosH1,1,,,,,,,,,,,,,,0,0,0,0,,,,,,,,,,,,,,,,,0,82,82,82,,,,,,,,,,,,,,,,,None,0,[],0,,,,,,,,,,,,99,A,2,2019_Jun_29_1442,PM,3.0.6,59.60654860307223,
PM_list_1.xlsx,PM_images_list_1.xlsx,cue words.xlsx,cue images.xlsx,recog_task.xlsx,recog_task_images1.xlsx,,defiant,l,0,NoHit,1,,,,,,,,,,,,,,0,0,0,0,,,,,,,,,,,,,,,,,0,83,83,83,,,,,,,,,,,,,,,,,None,0,[],[],,,,,,,,,,,,99,A,2,2019_Jun_29_1442,PM,3.0.6,59.60654860307223,
PM_list_1.xlsx,PM_images_list_1.xlsx,cue words.xlsx,cue images.xlsx,recog_task.xlsx,recog_task_images1.xlsx,,fault,l,0,NoHit,1,,,,,,,,,,,,,,0,0,0,0,,,,,,,,,,,,,,,,,0,84,84,84,,,,,,,,,,,,,,,,,None,0,[],[],,,,,,,,,,,,99,A,2,2019_Jun_29_1442,PM,3.0.6,59.60654860307223,
PM_list_1.xlsx,PM_images_list_1.xlsx,cue words.xlsx,cue images.xlsx,recog_task.xlsx,recog_task_images1.xlsx,,defiant,d,1,Hit,1,,,,,,,,,,,,,,0,0,0,0,,,,,,,,,,,,,,,,,0,85,85,85,,,,,,,,,,,,,,,,,None,0,[],[],,,,,,,,,,,,99,A,2,2019_Jun_29_1442,PM,3.0.6,59.60654860307223,
PM_list_1.xlsx,PM_images_list_1.xlsx,cue words.xlsx,cue images.xlsx,recog_task.xlsx,recog_task_images1.xlsx,,shotgun,l,0,NoHit,1,,,,,,,,,,,,,,0,0,0,0,,,,,,,,,,,,,,,,,0,86,86,86,,,,,,,,,,,,,,,,,None,0,[],[],,,,,,,,,,,,99,A,2,2019_Jun_29_1442,PM,3.0.6,59.60654860307223,
PM_list_1.xlsx,PM_images_list_1.xlsx,cue words.xlsx,cue images.xlsx,recog_task.xlsx,recog_task_images1.xlsx,,revolt,l,0,NoHit,1,,,,,,,,,,,,,,0,0,0,0,,,,,,,,,,,,,,,,,0,87,87,87,,,,,,,,,,,,,,,,,None,0,[],[],,,,,,,,,,,,99,A,2,2019_Jun_29_1442,PM,3.0.6,59.60654860307223,
PM_list_1.xlsx,PM_images_list_1.xlsx,cue words.xlsx,cue images.xlsx,recog_task.xlsx,recog_task_images1.xlsx,,unhappy,l,0,NoHit,1,,,,,,,,,,,,,,0,0,0,0,,,,,,,,,,,,,,,,,0,88,88,88,,,,,,,,,,,,,,,,,None,0,[],[],,,,,,,,,,,,99,A,2,2019_Jun_29_1442,PM,3.0.6,59.60654860307223,
PM_list_1.xlsx,PM_images_list_1.xlsx,cue words.xlsx,cue images.xlsx,recog_task.xlsx,recog_task_images1.xlsx,,revolt,d,1,Hit,1,,,,,,,,,,,,,,0,0,0,0,,,,,,,,,,,,,,,,,0,89,89,89,,,,,,,,,,,,,,,,,None,0,[],[],,,,,,,,,,,,99,A,2,2019_Jun_29_1442,PM,3.0.6,59.60654860307223,
PM_list_1.xlsx,PM_images_list_1.xlsx,cue words.xlsx,cue images.xlsx,recog_task.xlsx,recog_task_images1.xlsx,,car,l,0,NoHit,1,,,,,,,,,,,,,,0,0,0,0,,,,,,,,,,,,,,,,,0,90,90,90,,,,,,,,,,,,,,,,,None,0,[],[],,,,,,,,,,,,99,A,2,2019_Jun_29_1442,PM,3.0.6,59.60654860307223,
PM_list_1.xlsx,PM_images_list_1.xlsx,cue words.xlsx,cue images.xlsx,recog_task.xlsx,recog_task_images1.xlsx,,fight,l,0,NoHit,1,,,,,,,,,,,,,,0,0,0,0,,,,,,,,,,,,,,,,,0,91,91,91,,,,,,,,,,,,,,,,,None,0,[],[],,,,,,,,,,,,99,A,2,2019_Jun_29_1442,PM,3.0.6,59.60654860307223,
PM_list_1.xlsx,PM_images_list_1.xlsx,cue words.xlsx,cue images.xlsx,recog_task.xlsx,recog_task_images1.xlsx,,obsession,l,0,NoHit,1,,,,,,,,,,,,,,0,0,0,0,,,,,,,,,,,,,,,,,0,92,92,92,,,,,,,,,,,,,,,,,None,0,[],[],,,,,,,,,,,,99,A,2,2019_Jun_29_1442,PM,3.0.6,59.60654860307223,
PM_list_1.xlsx,PM_images_list_1.xlsx,cue words.xlsx,cue images.xlsx,recog_task.xlsx,recog_task_images1.xlsx,,startled,h,6,NeuH1,1,,,,,,,,,,,,,,0,0,0,0,,,,,,,,,,,,,,,,,0,93,93,93,,,,,,,,,,,,,,,,,None,0,[],0,,,,,,,,,,,,99,A,2,2019_Jun_29_1442,PM,3.0.6,59.60654860307223,
PM_list_1.xlsx,PM_images_list_1.xlsx,cue words.xlsx,cue images.xlsx,recog_task.xlsx,recog_task_images1.xlsx,,obsession,d,1,Hit,1,,,,,,,,,,,,,,0,0,0,0,,,,,,,,,,,,,,,,,0,94,94,94,,,,,,,,,,,,,,,,,None,0,[],[],,,,,,,,,,,,99,A,2,2019_Jun_29_1442,PM,3.0.6,59.60654860307223,
PM_list_1.xlsx,PM_images_list_1.xlsx,cue words.xlsx,cue images.xlsx,recog_task.xlsx,recog_task_images1.xlsx,,messy,l,0,NoHit,1,,,,,,,,,,,,,,0,0,0,0,,,,,,,,,,,,,,,,,0,95,95,95,,,,,,,,,,,,,,,,,None,0,[],[],,,,,,,,,,,,99,A,2,2019_Jun_29_1442,PM,3.0.6,59.60654860307223,
PM_list_1.xlsx,PM_images_list_1.xlsx,cue words.xlsx,cue images.xlsx,recog_task.xlsx,recog_task_images1.xlsx,,anger,l,0,NoHit,1,,,,,,,,,,,,,,0,0,0,0,,,,,,,,,,,,,,,,,0,96,96,96,,,,,,,,,,,,,,,,,None,0,[],[],,,,,,,,,,,,99,A,2,2019_Jun_29_1442,PM,3.0.6,59.60654860307223,
PM_list_1.xlsx,PM_images_list_1.xlsx,cue words.xlsx,cue images.xlsx,recog_task.xlsx,recog_task_images1.xlsx,,exercise,l,0,NoHit,1,,,,,,,,,,,,,,0,0,0,0,,,,,,,,,,,,,,,,,0,97,97,97,,,,,,,,,,,,,,,,,None,0,[],[],,,,,,,,,,,,99,A,2,2019_Jun_29_1442,PM,3.0.6,59.60654860307223,
PM_list_1.xlsx,PM_images_list_1.xlsx,cue words.xlsx,cue images.xlsx,recog_task.xlsx,recog_task_images1.xlsx,,anger,d,1,Hit,1,,,,,,,,,,,,,,0,0,0,0,,,,,,,,,,,,,,,,,0,98,98,98,,,,,,,,,,,,,,,,,None,0,[],[],,,,,,,,,,,,99,A,2,2019_Jun_29_1442,PM,3.0.6,59.60654860307223,
PM_list_1.xlsx,PM_images_list_1.xlsx,cue words.xlsx,cue images.xlsx,recog_task.xlsx,recog_task_images1.xlsx,,suspicious,l,0,NoHit,1,,,,,,,,,,,,,,0,0,0,0,,,,,,,,,,,,,,,,,0,99,99,99,,,,,,,,,,,,,,,,,None,0,[],[],,,,,,,,,,,,99,A,2,2019_Jun_29_1442,PM,3.0.6,59.60654860307223,
PM_list_1.xlsx,PM_images_list_1.xlsx,cue words.xlsx,cue images.xlsx,recog_task.xlsx,recog_task_images1.xlsx,,politeness,l,0,NoHit,1,,,,,,,,,,,,,,0,0,0,0,,,,,,,,,,,,,,,,,0,100,100,100,,,,,,,,,,,,,,,,,None,0,[],[],,,,,,,,,,,,99,A,2,2019_Jun_29_1442,PM,3.0.6,59.60654860307223,
PM_list_1.xlsx,PM_images_list_1.xlsx,cue words.xlsx,cue images.xlsx,recog_task.xlsx,recog_task_images1.xlsx,,suspicious,d,1,Hit,1,,,,,,,,,,,,,,0,0,0,0,,,,,,,,,,,,,,,,,0,101,101,101,,,,,,,,,,,,,,,,,None,0,[],[],,,,,,,,,,,,99,A,2,2019_Jun_29_1442,PM,3.0.6,59.60654860307223,
PM_list_1.xlsx,PM_images_list_1.xlsx,cue words.xlsx,cue images.xlsx,recog_task.xlsx,recog_task_images1.xlsx,,shark,l,0,NoHit,1,,,,,,,,,,,,,,0,0,0,0,,,,,,,,,,,,,,,,,0,102,102,102,,,,,,,,,,,,,,,,,None,0,[],[],,,,,,,,,,,,99,A,2,2019_Jun_29_1442,PM,3.0.6,59.60654860307223,
PM_list_1.xlsx,PM_images_list_1.xlsx,cue words.xlsx,cue images.xlsx,recog_task.xlsx,recog_task_images1.xlsx,,detest,l,0,NoHit,1,,,,,,,,,,,,,,0,0,0,0,,,,,,,,,,,,,,,,,0,103,103,103,,,,,,,,,,,,,,,,,None,0,[],[],,,,,,,,,,,,99,A,2,2019_Jun_29_1442,PM,3.0.6,59.60654860307223,
PM_list_1.xlsx,PM_images_list_1.xlsx,cue words.xlsx,cue images.xlsx,recog_task.xlsx,recog_task_images1.xlsx,,shark,d,1,Hit,1,,,,,,,,,,,,,,0,0,0,0,,,,,,,,,,,,,,,,,0,104,104,104,,,,,,,,,,,,,,,,,None,0,[],[],,,,,,,,,,,,99,A,2,2019_Jun_29_1442,PM,3.0.6,59.60654860307223,
PM_list_1.xlsx,PM_images_list_1.xlsx,cue words.xlsx,cue images.xlsx,recog_task.xlsx,recog_task_images1.xlsx,,bunny,h,2,PosL1,1,,,,,,,,,,,,,,0,0,0,0,,,,,,,,,,,,,,,,,0,105,105,105,,,,,,,,,,,,,,,,,None,0,[],0,,,,,,,,,,,,99,A,2,2019_Jun_29_1442,PM,3.0.6,59.60654860307223,
PM_list_1.xlsx,PM_images_list_1.xlsx,cue words.xlsx,cue images.xlsx,recog_task.xlsx,recog_task_images1.xlsx,,cash,l,0,NoHit,1,,,,,,,,,,,,,,0,0,0,0,,,,,,,,,,,,,,,,,0,106,106,106,,,,,,,,,,,,,,,,,None,0,[],[],,,,,,,,,,,,99,A,2,2019_Jun_29_1442,PM,3.0.6,59.60654860307223,
PM_list_1.xlsx,PM_images_list_1.xlsx,cue words.xlsx,cue images.xlsx,recog_task.xlsx,recog_task_images1.xlsx,,cancer,l,0,NoHit,1,,,,,,,,,,,,,,0,0,0,0,,,,,,,,,,,,,,,,,0,107,107,107,,,,,,,,,,,,,,,,,None,0,[],[],,,,,,,,,,,,99,A,2,2019_Jun_29_1442,PM,3.0.6,59.60654860307223,
PM_list_1.xlsx,PM_images_list_1.xlsx,cue words.xlsx,cue images.xlsx,recog_task.xlsx,recog_task_images1.xlsx,,pistol,l,0,NoHit,1,,,,,,,,,,,,,,0,0,0,0,,,,,,,,,,,,,,,,,0,108,108,108,,,,,,,,,,,,,,,,,None,0,[],[],,,,,,,,,,,,99,A,2,2019_Jun_29_1442,PM,3.0.6,59.60654860307223,
PM_list_1.xlsx,PM_images_list_1.xlsx,cue words.xlsx,cue images.xlsx,recog_task.xlsx,recog_task_images1.xlsx,,cancer,d,1,Hit,1,,,,,,,,,,,,,,0,0,0,0,,,,,,,,,,,,,,,,,0,109,109,109,,,,,,,,,,,,,,,,,None,0,[],[],,,,,,,,,,,,99,A,2,2019_Jun_29_1442,PM,3.0.6,59.60654860307223,
PM_list_1.xlsx,PM_images_list_1.xlsx,cue words.xlsx,cue images.xlsx,recog_task.xlsx,recog_task_images1.xlsx,,excitement,l,0,NoHit,1,,,,,,,,,,,,,,0,0,0,0,,,,,,,,,,,,,,,,,0,110,110,110,,,,,,,,,,,,,,,,,None,0,[],[],,,,,,,,,,,,99,A,2,2019_Jun_29_1442,PM,3.0.6,59.60654860307223,
PM_list_1.xlsx,PM_images_list_1.xlsx,cue words.xlsx,cue images.xlsx,recog_task.xlsx,recog_task_images1.xlsx,,bankrupt,l,0,NoHit,1,,,,,,,,,,,,,,0,0,0,0,,,,,,,,,,,,,,,,,0,111,111,111,,,,,,,,,,,,,,,,,None,0,[],[],,,,,,,,,,,,99,A,2,2019_Jun_29_1442,PM,3.0.6,59.60654860307223,
PM_list_1.xlsx,PM_images_list_1.xlsx,cue words.xlsx,cue images.xlsx,recog_task.xlsx,recog_task_images1.xlsx,,fight,l,0,NoHit,1,,,,,,,,,,,,,,0,0,0,0,,,,,,,,,,,,,,,,,0,112,112,112,,,,,,,,,,,,,,,,,None,0,[],[],,,,,,,,,,,,99,A,2,2019_Jun_29_1442,PM,3.0.6,59.60654860307223,
PM_list_1.xlsx,PM_images_list_1.xlsx,cue words.xlsx,cue images.xlsx,recog_task.xlsx,recog_task_images1.xlsx,,bankrupt,d,1,Hit,1,,,,,,,,,,,,,,0,0,0,0,,,,,,,,,,,,,,,,,0,113,113,113,,,,,,,,,,,,,,,,,None,0,[],[],,,,,,,,,,,,99,A,2,2019_Jun_29_1442,PM,3.0.6,59.60654860307223,
PM_list_1.xlsx,PM_images_list_1.xlsx,cue words.xlsx,cue images.xlsx,recog_task.xlsx,recog_task_images1.xlsx,,demon,l,0,NoHit,1,,,,,,,,,,,,,,0,0,0,0,,,,,,,,,,,,,,,,,0,114,114,114,,,,,,,,,,,,,,,,,None,0,[],[],,,,,,,,,,,,99,A,2,2019_Jun_29_1442,PM,3.0.6,59.60654860307223,
PM_list_1.xlsx,PM_images_list_1.xlsx,cue words.xlsx,cue images.xlsx,recog_task.xlsx,recog_task_images1.xlsx,,rifle,l,0,NoHit,1,,,,,,,,,,,,,,0,0,0,0,,,,,,,,,,,,,,,,,0,115,115,115,,,,,,,,,,,,,,,,,None,0,[],[],,,,,,,,,,,,99,A,2,2019_Jun_29_1442,PM,3.0.6,59.60654860307223,
PM_list_1.xlsx,PM_images_list_1.xlsx,cue words.xlsx,cue images.xlsx,recog_task.xlsx,recog_task_images1.xlsx,,noisy,l,0,NoHit,1,,,,,,,,,,,,,,0,0,0,0,,,,,,,,,,,,,,,,,0,116,116,116,,,,,,,,,,,,,,,,,None,0,[],[],,,,,,,,,,,,99,A,2,2019_Jun_29_1442,PM,3.0.6,59.60654860307223,
PM_list_1.xlsx,PM_images_list_1.xlsx,cue words.xlsx,cue images.xlsx,recog_task.xlsx,recog_task_images1.xlsx,,afraid,h,7,NegH1,1,,,,,,,,,,,,,,0,0,0,0,,,,,,,,,,,,,,,,,0,117,117,117,,,,,,,,,,,,,,,,,None,0,[],0,,,,,,,,,,,,99,A,2,2019_Jun_29_1442,PM,3.0.6,59.60654860307223,
PM_list_1.xlsx,PM_images_list_1.xlsx,cue words.xlsx,cue images.xlsx,recog_task.xlsx,recog_task_images1.xlsx,,noisy,d,1,Hit,1,,,,,,,,,,,,,,0,0,0,0,,,,,,,,,,,,,,,,,0,118,118,118,,,,,,,,,,,,,,,,,None,0,[],[],,,,,,,,,,,,99,A,2,2019_Jun_29_1442,PM,3.0.6,59.60654860307223,
PM_list_1.xlsx,PM_images_list_1.xlsx,cue words.xlsx,cue images.xlsx,recog_task.xlsx,recog_task_images1.xlsx,,disloyal,l,0,NoHit,1,,,,,,,,,,,,,,0,0,0,0,,,,,,,,,,,,,,,,,0,119,119,119,,,,,,,,,,,,,,,,,None,0,[],[],,,,,,,,,,,,99,A,2,2019_Jun_29_1442,PM,3.0.6,59.60654860307223,
PM_list_1.xlsx,PM_images_list_1.xlsx,cue words.xlsx,cue images.xlsx,recog_task.xlsx,recog_task_images1.xlsx,,controlling,l,0,NoHit,1,,,,,,,,,,,,,,0,0,0,0,,,,,,,,,,,,,,,,,0,120,120,120,,,,,,,,,,,,,,,,,None,0,[],[],,,,,,,,,,,,99,A,2,2019_Jun_29_1442,PM,3.0.6,59.60654860307223,
PM_list_1.xlsx,PM_images_list_1.xlsx,cue words.xlsx,cue images.xlsx,recog_task.xlsx,recog_task_images1.xlsx,,devil,l,0,NoHit,1,,,,,,,,,,,,,,0,0,0,0,,,,,,,,,,,,,,,,,0,121,121,121,,,,,,,,,,,,,,,,,None,0,[],[],,,,,,,,,,,,99,A,2,2019_Jun_29_1442,PM,3.0.6,59.60654860307223,
PM_list_1.xlsx,PM_images_list_1.xlsx,cue words.xlsx,cue images.xlsx,recog_task.xlsx,recog_task_images1.xlsx,,bomb,l,0,NoHit,1,,,,,,,,,,,,,,0,0,0,0,,,,,,,,,,,,,,,,,0,122,122,122,,,,,,,,,,,,,,,,,None,0,[],[],,,,,,,,,,,,99,A,2,2019_Jun_29_1442,PM,3.0.6,59.60654860307223,
PM_list_1.xlsx,PM_images_list_1.xlsx,cue words.xlsx,cue images.xlsx,recog_task.xlsx,recog_task_images1.xlsx,,devil,d,1,Hit,1,,,,,,,,,,,,,,0,0,0,0,,,,,,,,,,,,,,,,,0,123,123,123,,,,,,,,,,,,,,,,,None,0,[],[],,,,,,,,,,,,99,A,2,2019_Jun_29_1442,PM,3.0.6,59.60654860307223,
PM_list_1.xlsx,PM_images_list_1.xlsx,cue words.xlsx,cue images.xlsx,recog_task.xlsx,recog_task_images1.xlsx,,ambulance,l,0,NoHit,1,,,,,,,,,,,,,,0,0,0,0,,,,,,,,,,,,,,,,,0,124,124,124,,,,,,,,,,,,,,,,,None,0,[],[],,,,,,,,,,,,99,A,2,2019_Jun_29_1442,PM,3.0.6,59.60654860307223,
PM_list_1.xlsx,PM_images_list_1.xlsx,cue words.xlsx,cue images.xlsx,recog_task.xlsx,recog_task_images1.xlsx,,erotic,l,0,NoHit,1,,,,,,,,,,,,,,0,0,0,0,,,,,,,,,,,,,,,,,0,125,125,125,,,,,,,,,,,,,,,,,None,0,[],[],,,,,,,,,,,,99,A,2,2019_Jun_29_1442,PM,3.0.6,59.60654860307223,
PM_list_1.xlsx,PM_images_list_1.xlsx,cue words.xlsx,cue images.xlsx,recog_task.xlsx,recog_task_images1.xlsx,,distressed,l,0,NoHit,1,,,,,,,,,,,,,,0,0,0,0,,,,,,,,,,,,,,,,,0,126,126,126,,,,,,,,,,,,,,,,,None,0,[],[],,,,,,,,,,,,99,A,2,2019_Jun_29_1442,PM,3.0.6,59.60654860307223,
PM_list_1.xlsx,PM_images_list_1.xlsx,cue words.xlsx,cue images.xlsx,recog_task.xlsx,recog_task_images1.xlsx,,coward,h,4,NegL1,1,,,,,,,,,,,,,,0,0,0,0,,,,,,,,,,,,,,,,,0,127,127,127,,,,,,,,,,,,,,,,,None,0,[],0,,,,,,,,,,,,99,A,2,2019_Jun_29_1442,PM,3.0.6,59.60654860307223,
PM_list_1.xlsx,PM_images_list_1.xlsx,cue words.xlsx,cue images.xlsx,recog_task.xlsx,recog_task_images1.xlsx,,distressed,d,1,Hit,1,,,,,,,,,,,,,,0,0,0,0,,,,,,,,,,,,,,,,,0,128,128,128,,,,,,,,,,,,,,,,,None,0,[],[],,,,,,,,,,,,99,A,2,2019_Jun_29_1442,PM,3.0.6,59.60654860307223,
PM_list_1.xlsx,PM_images_list_1.xlsx,cue words.xlsx,cue images.xlsx,recog_task.xlsx,recog_task_images1.xlsx,,car,l,0,NoHit,1,,,,,,,,,,,,,,0,0,0,0,,,,,,,,,,,,,,,,,0,129,129,129,,,,,,,,,,,,,,,,,None,0,[],[],,,,,,,,,,,,99,A,2,2019_Jun_29_1442,PM,3.0.6,59.60654860307223,
PM_list_1.xlsx,PM_images_list_1.xlsx,cue words.xlsx,cue images.xlsx,recog_task.xlsx,recog_task_images1.xlsx,,shotgun,l,0,NoHit,1,,,,,,,,,,,,,,0,0,0,0,,,,,,,,,,,,,,,,,0,130,130,130,,,,,,,,,,,,,,,,,None,0,[],[],,,,,,,,,,,,99,A,2,2019_Jun_29_1442,PM,3.0.6,59.60654860307223,
PM_list_1.xlsx,PM_images_list_1.xlsx,cue words.xlsx,cue images.xlsx,recog_task.xlsx,recog_task_images1.xlsx,,detest,l,0,NoHit,1,,,,,,,,,,,,,,0,0,0,0,,,,,,,,,,,,,,,,,0,131,131,131,,,,,,,,,,,,,,,,,None,0,[],[],,,,,,,,,,,,99,A,2,2019_Jun_29_1442,PM,3.0.6,59.60654860307223,
PM_list_1.xlsx,PM_images_list_1.xlsx,cue words.xlsx,cue images.xlsx,recog_task.xlsx,recog_task_images1.xlsx,,coward,,,NegL1,,d,,,,,,,,,,,,,0,0,0,0,,,,,,,,,,,,,,,,,,,,,0,0,0,3,,,,,,,,,,,,,,,,,,l,0,2.8918532382813282,,,,,,,,99,A,2,2019_Jun_29_1442,PM,3.0.6,59.60654860307223,
PM_list_1.xlsx,PM_images_list_1.xlsx,cue words.xlsx,cue images.xlsx,recog_task.xlsx,recog_task_images1.xlsx,,table,,,None,,l,,,,,,,,,,,,,0,0,0,0,,,,,,,,,,,,,,,,,,,,,0,1,1,4,,,,,,,,,,,,,,,,,,l,1,0.44249480176949874,,,,,,,,99,A,2,2019_Jun_29_1442,PM,3.0.6,59.60654860307223,
PM_list_1.xlsx,PM_images_list_1.xlsx,cue words.xlsx,cue images.xlsx,recog_task.xlsx,recog_task_images1.xlsx,,startled,,,NeuH1,,d,,,,,,,,,,,,,0,0,0,0,,,,,,,,,,,,,,,,,,,,,0,2,2,10,,,,,,,,,,,,,,,,,,l,0,0.282885855413042,,,,,,,,99,A,2,2019_Jun_29_1442,PM,3.0.6,59.60654860307223,
PM_list_1.xlsx,PM_images_list_1.xlsx,cue words.xlsx,cue images.xlsx,recog_task.xlsx,recog_task_images1.xlsx,,statue,,,NeuL1,,d,,,,,,,,,,,,,0,0,0,0,,,,,,,,,,,,,,,,,,,,,0,3,3,15,,,,,,,,,,,,,,,,,,l,0,0.16269743972225115,,,,,,,,99,A,2,2019_Jun_29_1442,PM,3.0.6,59.60654860307223,
PM_list_1.xlsx,PM_images_list_1.xlsx,cue words.xlsx,cue images.xlsx,recog_task.xlsx,recog_task_images1.xlsx,,nature,,,None,,l,,,,,,,,,,,,,0,0,0,0,,,,,,,,,,,,,,,,,,,,,0,4,4,0,,,,,,,,,,,,,,,,,,l,1,0.12720963242463768,,,,,,,,99,A,2,2019_Jun_29_1442,PM,3.0.6,59.60654860307223,
PM_list_1.xlsx,PM_images_list_1.xlsx,cue words.xlsx,cue images.xlsx,recog_task.xlsx,recog_task_images1.xlsx,,bunny,,,PosL1,,d,,,,,,,,,,,,,0,0,0,0,,,,,,,,,,,,,,,,,,,,,0,5,5,13,,,,,,,,,,,,,,,,,,l,0,0.13305780186783522,,,,,,,,99,A,2,2019_Jun_29_1442,PM,3.0.6,59.60654860307223,
PM_list_1.xlsx,PM_images_list_1.xlsx,cue words.xlsx,cue images.xlsx,recog_task.xlsx,recog_task_images1.xlsx,,tense,,,None,,l,,,,,,,,,,,,,0,0,0,0,,,,,,,,,,,,,,,,,,,,,0,6,6,12,,,,,,,,,,,,,,,,,,l,1,0.14596985460957512,,,,,,,,99,A,2,2019_Jun_29_1442,PM,3.0.6,59.60654860307223,
PM_list_1.xlsx,PM_images_list_1.xlsx,cue words.xlsx,cue images.xlsx,recog_task.xlsx,recog_task_images1.xlsx,,gentle,,,None,,l,,,,,,,,,,,,,0,0,0,0,,,,,,,,,,,,,,,,,,,,,0,7,7,2,,,,,,,,,,,,,,,,,,l,1,0.1305518498411402,,,,,,,,99,A,2,2019_Jun_29_1442,PM,3.0.6,59.60654860307223,
PM_list_1.xlsx,PM_images_list_1.xlsx,cue words.xlsx,cue images.xlsx,recog_task.xlsx,recog_task_images1.xlsx,,afraid,,,NegH1,,d,,,,,,,,,,,,,0,0,0,0,,,,,,,,,,,,,,,,,,,,,0,8,8,5,,,,,,,,,,,,,,,,,,l,0,0.13665943226078525,,,,,,,,99,A,2,2019_Jun_29_1442,PM,3.0.6,59.60654860307223,
PM_list_1.xlsx,PM_images_list_1.xlsx,cue words.xlsx,cue images.xlsx,recog_task.xlsx,recog_task_images1.xlsx,,street,,,None,,l,,,,,,,,,,,,,0,0,0,0,,,,,,,,,,,,,,,,,,,,,0,9,9,14,,,,,,,,,,,,,,,,,,l,1,0.10876400530105457,,,,,,,,99,A,2,2019_Jun_29_1442,PM,3.0.6,59.60654860307223,
PM_list_1.xlsx,PM_images_list_1.xlsx,cue words.xlsx,cue images.xlsx,recog_task.xlsx,recog_task_images1.xlsx,,demon,,,None,,l,,,,,,,,,,,,,0,0,0,0,,,,,,,,,,,,,,,,,,,,,0,10,10,6,,,,,,,,,,,,,,,,,,l,1,0.12803964008344337,,,,,,,,99,A,2,2019_Jun_29_1442,PM,3.0.6,59.60654860307223,
PM_list_1.xlsx,PM_images_list_1.xlsx,cue words.xlsx,cue images.xlsx,recog_task.xlsx,recog_task_images1.xlsx,,home,,,None,,l,,,,,,,,,,,,,0,0,0,0,,,,,,,,,,,,,,,,,,,,,0,11,11,11,,,,,,,,,,,,,,,,,,l,1,0.1148971876828,,,,,,,,99,A,2,2019_Jun_29_1442,PM,3.0.6,59.60654860307223,
PM_list_1.xlsx,PM_images_list_1.xlsx,cue words.xlsx,cue images.xlsx,recog_task.xlsx,recog_task_images1.xlsx,,birthday,,,PosH1,,d,,,,,,,,,,,,,0,0,0,0,,,,,,,,,,,,,,,,,,,,,0,12,12,8,,,,,,,,,,,,,,,,,,l,0,0.11934759916039184,,,,,,,,99,A,2,2019_Jun_29_1442,PM,3.0.6,59.60654860307223,
PM_list_1.xlsx,PM_images_list_1.xlsx,cue words.xlsx,cue images.xlsx,recog_task.xlsx,recog_task_images1.xlsx,,confident,,,None,,l,,,,,,,,,,,,,0,0,0,0,,,,,,,,,,,,,,,,,,,,,0,13,13,9,,,,,,,,,,,,,,,,,,l,1,0.10339995962567627,,,,,,,,99,A,2,2019_Jun_29_1442,PM,3.0.6,59.60654860307223,
PM_list_1.xlsx,PM_images_list_1.xlsx,cue words.xlsx,cue images.xlsx,recog_task.xlsx,recog_task_images1.xlsx,,shotgun,,,None,,l,,,,,,,,,,,,,0,0,0,0,,,,,,,,,,,,,,,,,,,,,0,14,14,7,,,,,,,,,,,,,,,,,,l,1,0.1416872651898302,,,,,,,,99,A,2,2019_Jun_29_1442,PM,3.0.6,59.60654860307223,
PM_list_1.xlsx,PM_images_list_1.xlsx,cue words.xlsx,cue images.xlsx,recog_task.xlsx,recog_task_images1.xlsx,,wolf,,,None,,l,,,,,,,,,,,,,0,0,0,0,,,,,,,,,,,,,,,,,,,,,0,15,15,1,,,,,,,,,,,,,,,,,,l,1,0.12314037600299343,,,,,,,,99,A,2,2019_Jun_29_1442,PM,3.0.6,59.60654860307223,
PM_list_2.xlsx,PM_images_list_2.xlsx,cue words2.xlsx,cue images2.xlsx,recog_task2.xlsx,recog_task_images2.xlsx,table,,,,,,,,,,,,,,,,,,,0,1,1,1,0,0,0,1,,,,,,,,,,,,,,,,,,,,,,,,,,,,,,,,,,,,,,,,,,,,,,,,99,A,2,2019_Jun_29_1442,PM,3.0.6,59.60654860307223,
PM_list_2.xlsx,PM_images_list_2.xlsx,cue words2.xlsx,cue images2.xlsx,recog_task2.xlsx,recog_task_images2.xlsx,cozy,,,,,,,,,,,,,,,,,,,0,1,1,1,0,1,1,0,,,,,,,,,,,,,,,,,,,,,,,,,,,,,,,,,,,,,,,,,,,,,,,,99,A,2,2019_Jun_29_1442,PM,3.0.6,59.60654860307223,
PM_list_2.xlsx,PM_images_list_2.xlsx,cue words2.xlsx,cue images2.xlsx,recog_task2.xlsx,recog_task_images2.xlsx,impair,,,,,,,,,,,,,,,,,,,0,1,1,1,0,2,2,5,,,,,,,,,,,,,,,,,,,,,,,,,,,,,,,,,,,,,,,,,,,,,,,,99,A,2,2019_Jun_29_1442,PM,3.0.6,59.60654860307223,
PM_list_2.xlsx,PM_images_list_2.xlsx,cue words2.xlsx,cue images2.xlsx,recog_task2.xlsx,recog_task_images2.xlsx,divorce,,,,,,,,,,,,,,,,,,,0,1,1,1,0,3,3,2,,,,,,,,,,,,,,,,,,,,,,,,,,,,,,,,,,,,,,,,,,,,,,,,99,A,2,2019_Jun_29_1442,PM,3.0.6,59.60654860307223,
PM_list_2.xlsx,PM_images_list_2.xlsx,cue words2.xlsx,cue images2.xlsx,recog_task2.xlsx,recog_task_images2.xlsx,python,,,,,,,,,,,,,,,,,,,0,1,1,1,0,4,4,3,,,,,,,,,,,,,,,,,,,,,,,,,,,,,,,,,,,,,,,,,,,,,,,,99,A,2,2019_Jun_29_1442,PM,3.0.6,59.60654860307223,
PM_list_2.xlsx,PM_images_list_2.xlsx,cue words2.xlsx,cue images2.xlsx,recog_task2.xlsx,recog_task_images2.xlsx,dollar,,,,,,,,,,,,,,,,,,,0,1,1,1,0,5,5,4,,,,,,,,,,,,,,,,,,,,,,,,,,,,,,,,,,,,,,,,,,,,,,,,99,A,2,2019_Jun_29_1442,PM,3.0.6,59.60654860307223,
PM_list_2.xlsx,PM_images_list_2.xlsx,cue words2.xlsx,cue images2.xlsx,recog_task2.xlsx,recog_task_images2.xlsx,python,,,,,,,,,,,,,,,,,,,0,1,1,1,,,,,0,0,0,3,,,,,,,,,,,,,,,,,,,,,,,,,,,,,,,,,,,,,,,,,,,,99,A,2,2019_Jun_29_1442,PM,3.0.6,59.60654860307223,
PM_list_2.xlsx,PM_images_list_2.xlsx,cue words2.xlsx,cue images2.xlsx,recog_task2.xlsx,recog_task_images2.xlsx,dollar,,,,,,,,,,,,,,,,,,,0,1,1,1,,,,,0,1,1,4,,,,,,,,,,,,,,,,,,,,,,,,,,,,,,,,,,,,,,,,,,,,99,A,2,2019_Jun_29_1442,PM,3.0.6,59.60654860307223,
PM_list_2.xlsx,PM_images_list_2.xlsx,cue words2.xlsx,cue images2.xlsx,recog_task2.xlsx,recog_task_images2.xlsx,table,,,,,,,,,,,,,,,,,,,0,1,1,1,,,,,0,2,2,1,,,,,,,,,,,,,,,,,,,,,,,,,,,,,,,,,,,,,,,,,,,,99,A,2,2019_Jun_29_1442,PM,3.0.6,59.60654860307223,
PM_list_2.xlsx,PM_images_list_2.xlsx,cue words2.xlsx,cue images2.xlsx,recog_task2.xlsx,recog_task_images2.xlsx,divorce,,,,,,,,,,,,,,,,,,,0,1,1,1,,,,,0,3,3,2,,,,,,,,,,,,,,,,,,,,,,,,,,,,,,,,,,,,,,,,,,,,99,A,2,2019_Jun_29_1442,PM,3.0.6,59.60654860307223,
PM_list_2.xlsx,PM_images_list_2.xlsx,cue words2.xlsx,cue images2.xlsx,recog_task2.xlsx,recog_task_images2.xlsx,cozy,,,,,,,,,,,,,,,,,,,0,1,1,1,,,,,0,4,4,0,,,,,,,,,,,,,,,,,,,,,,,,,,,,,,,,,,,,,,,,,,,,99,A,2,2019_Jun_29_1442,PM,3.0.6,59.60654860307223,
PM_list_2.xlsx,PM_images_list_2.xlsx,cue words2.xlsx,cue images2.xlsx,recog_task2.xlsx,recog_task_images2.xlsx,impair,,,,,,,,,,,,,,,,,,,0,1,1,1,,,,,0,5,5,5,,,,,,,,,,,,,,,,,,,,,,,,,,,,,,,,,,,,,,,,,,,,99,A,2,2019_Jun_29_1442,PM,3.0.6,59.60654860307223,
PM_list_2.xlsx,PM_images_list_2.xlsx,cue words2.xlsx,cue images2.xlsx,recog_task2.xlsx,recog_task_images2.xlsx,,,,,,,,,,,,,,,,,,,,0,1,1,1,,,,,,,,,0,0,0,0,,,,,,,,,,,,,,,,,,,,,,,,,,,,,,,,,,,,,,,,99,A,2,2019_Jun_29_1442,PM,3.0.6,59.60654860307223,
PM_list_2.xlsx,PM_images_list_2.xlsx,cue words2.xlsx,cue images2.xlsx,recog_task2.xlsx,recog_task_images2.xlsx,,cyclone,l,0,NoHit,2,,,,,,,,,,,,,,0,1,1,1,,,,,,,,,,,,,,,,,0,0,0,0,,,,,,,,,,,,,,,,,None,0,[],[],,,,,,,,,,,,99,A,2,2019_Jun_29_1442,PM,3.0.6,59.60654860307223,
PM_list_2.xlsx,PM_images_list_2.xlsx,cue words2.xlsx,cue images2.xlsx,recog_task2.xlsx,recog_task_images2.xlsx,,bath,l,0,NoHit,2,,,,,,,,,,,,,,0,1,1,1,,,,,,,,,,,,,,,,,0,1,1,1,,,,,,,,,,,,,,,,,None,0,[],[],,,,,,,,,,,,99,A,2,2019_Jun_29_1442,PM,3.0.6,59.60654860307223,
PM_list_2.xlsx,PM_images_list_2.xlsx,cue words2.xlsx,cue images2.xlsx,recog_task2.xlsx,recog_task_images2.xlsx,,dignified,l,0,NoHit,2,,,,,,,,,,,,,,0,1,1,1,,,,,,,,,,,,,,,,,0,2,2,2,,,,,,,,,,,,,,,,,None,0,[],[],,,,,,,,,,,,99,A,2,2019_Jun_29_1442,PM,3.0.6,59.60654860307223,
PM_list_2.xlsx,PM_images_list_2.xlsx,cue words2.xlsx,cue images2.xlsx,recog_task2.xlsx,recog_task_images2.xlsx,,affection,d,1,Hit,2,,,,,,,,,,,,,,0,1,1,1,,,,,,,,,,,,,,,,,0,3,3,3,,,,,,,,,,,,,,,,,None,0,[],[],,,,,,,,,,,,99,A,2,2019_Jun_29_1442,PM,3.0.6,59.60654860307223,
PM_list_2.xlsx,PM_images_list_2.xlsx,cue words2.xlsx,cue images2.xlsx,recog_task2.xlsx,recog_task_images2.xlsx,,tower,l,0,NoHit,2,,,,,,,,,,,,,,0,1,1,1,,,,,,,,,,,,,,,,,0,4,4,4,,,,,,,,,,,,,,,,,None,0,[],[],,,,,,,,,,,,99,A,2,2019_Jun_29_1442,PM,3.0.6,59.60654860307223,
PM_list_2.xlsx,PM_images_list_2.xlsx,cue words2.xlsx,cue images2.xlsx,recog_task2.xlsx,recog_task_images2.xlsx,,comfort,l,0,NoHit,2,,,,,,,,,,,,,,0,1,1,1,,,,,,,,,,,,,,,,,0,5,5,5,,,,,,,,,,,,,,,,,None,0,[],[],,,,,,,,,,,,99,A,2,2019_Jun_29_1442,PM,3.0.6,59.60654860307223,
PM_list_2.xlsx,PM_images_list_2.xlsx,cue words2.xlsx,cue images2.xlsx,recog_task2.xlsx,recog_task_images2.xlsx,,affection,d,1,Hit,2,,,,,,,,,,,,,,0,1,1,1,,,,,,,,,,,,,,,,,0,6,6,6,,,,,,,,,,,,,,,,,None,0,[],[],,,,,,,,,,,,99,A,2,2019_Jun_29_1442,PM,3.0.6,59.60654860307223,
PM_list_2.xlsx,PM_images_list_2.xlsx,cue words2.xlsx,cue images2.xlsx,recog_task2.xlsx,recog_task_images2.xlsx,,stool,l,0,NoHit,2,,,,,,,,,,,,,,0,1,1,1,,,,,,,,,,,,,,,,,0,7,7,7,,,,,,,,,,,,,,,,,None,0,[],[],,,,,,,,,,,,99,A,2,2019_Jun_29_1442,PM,3.0.6,59.60654860307223,
PM_list_2.xlsx,PM_images_list_2.xlsx,cue words2.xlsx,cue images2.xlsx,recog_task2.xlsx,recog_task_images2.xlsx,,stiff,l,0,NoHit,2,,,,,,,,,,,,,,0,1,1,1,,,,,,,,,,,,,,,,,0,8,8,8,,,,,,,,,,,,,,,,,None,0,[],[],,,,,,,,,,,,99,A,2,2019_Jun_29_1442,PM,3.0.6,59.60654860307223,
PM_list_2.xlsx,PM_images_list_2.xlsx,cue words2.xlsx,cue images2.xlsx,recog_task2.xlsx,recog_task_images2.xlsx,,stool,d,1,Hit,2,,,,,,,,,,,,,,0,1,1,1,,,,,,,,,,,,,,,,,0,9,9,9,,,,,,,,,,,,,,,,,None,0,[],[],,,,,,,,,,,,99,A,2,2019_Jun_29_1442,PM,3.0.6,59.60654860307223,
PM_list_2.xlsx,PM_images_list_2.xlsx,cue words2.xlsx,cue images2.xlsx,recog_task2.xlsx,recog_task_images2.xlsx,,dollar,h,11,PosH2,2,,,,,,,,,,,,,,0,1,1,1,,,,,,,,,,,,,,,,,0,10,10,10,,,,,,,,,,,,,,,,,None,0,[],0,,,,,,,,,,,,99,A,2,2019_Jun_29_1442,PM,3.0.6,59.60654860307223,
PM_list_2.xlsx,PM_images_list_2.xlsx,cue words2.xlsx,cue images2.xlsx,recog_task2.xlsx,recog_task_images2.xlsx,,dump,l,0,NoHit,2,,,,,,,,,,,,,,0,1,1,1,,,,,,,,,,,,,,,,,0,11,11,11,,,,,,,,,,,,,,,,,None,0,[],[],,,,,,,,,,,,99,A,2,2019_Jun_29_1442,PM,3.0.6,59.60654860307223,
PM_list_2.xlsx,PM_images_list_2.xlsx,cue words2.xlsx,cue images2.xlsx,recog_task2.xlsx,recog_task_images2.xlsx,,kindness,l,0,NoHit,2,,,,,,,,,,,,,,0,1,1,1,,,,,,,,,,,,,,,,,0,12,12,12,,,,,,,,,,,,,,,,,None,0,[],[],,,,,,,,,,,,99,A,2,2019_Jun_29_1442,PM,3.0.6,59.60654860307223,
PM_list_2.xlsx,PM_images_list_2.xlsx,cue words2.xlsx,cue images2.xlsx,recog_task2.xlsx,recog_task_images2.xlsx,,easy,l,0,NoHit,2,,,,,,,,,,,,,,0,1,1,1,,,,,,,,,,,,,,,,,0,13,13,13,,,,,,,,,,,,,,,,,None,0,[],[],,,,,,,,,,,,99,A,2,2019_Jun_29_1442,PM,3.0.6,59.60654860307223,
PM_list_2.xlsx,PM_images_list_2.xlsx,cue words2.xlsx,cue images2.xlsx,recog_task2.xlsx,recog_task_images2.xlsx,,kindness,d,1,Hit,2,,,,,,,,,,,,,,0,1,1,1,,,,,,,,,,,,,,,,,0,14,14,14,,,,,,,,,,,,,,,,,None,0,[],[],,,,,,,,,,,,99,A,2,2019_Jun_29_1442,PM,3.0.6,59.60654860307223,
PM_list_2.xlsx,PM_images_list_2.xlsx,cue words2.xlsx,cue images2.xlsx,recog_task2.xlsx,recog_task_images2.xlsx,,subdued,l,0,NoHit,2,,,,,,,,,,,,,,0,1,1,1,,,,,,,,,,,,,,,,,0,15,15,15,,,,,,,,,,,,,,,,,None,0,[],[],,,,,,,,,,,,99,A,2,2019_Jun_29_1442,PM,3.0.6,59.60654860307223,
PM_list_2.xlsx,PM_images_list_2.xlsx,cue words2.xlsx,cue images2.xlsx,recog_task2.xlsx,recog_task_images2.xlsx,,spray,l,0,NoHit,2,,,,,,,,,,,,,,0,1,1,1,,,,,,,,,,,,,,,,,0,16,16,16,,,,,,,,,,,,,,,,,None,0,[],[],,,,,,,,,,,,99,A,2,2019_Jun_29_1442,PM,3.0.6,59.60654860307223,
PM_list_2.xlsx,PM_images_list_2.xlsx,cue words2.xlsx,cue images2.xlsx,recog_task2.xlsx,recog_task_images2.xlsx,,subdued,d,1,Hit,2,,,,,,,,,,,,,,0,1,1,1,,,,,,,,,,,,,,,,,0,17,17,17,,,,,,,,,,,,,,,,,None,0,[],[],,,,,,,,,,,,99,A,2,2019_Jun_29_1442,PM,3.0.6,59.60654860307223,
PM_list_2.xlsx,PM_images_list_2.xlsx,cue words2.xlsx,cue images2.xlsx,recog_task2.xlsx,recog_task_images2.xlsx,,stagnant,l,0,NoHit,2,,,,,,,,,,,,,,0,1,1,1,,,,,,,,,,,,,,,,,0,18,18,18,,,,,,,,,,,,,,,,,None,0,[],[],,,,,,,,,,,,99,A,2,2019_Jun_29_1442,PM,3.0.6,59.60654860307223,
PM_list_2.xlsx,PM_images_list_2.xlsx,cue words2.xlsx,cue images2.xlsx,recog_task2.xlsx,recog_task_images2.xlsx,,trunk,l,0,NoHit,2,,,,,,,,,,,,,,0,1,1,1,,,,,,,,,,,,,,,,,0,19,19,19,,,,,,,,,,,,,,,,,None,0,[],[],,,,,,,,,,,,99,A,2,2019_Jun_29_1442,PM,3.0.6,59.60654860307223,
PM_list_2.xlsx,PM_images_list_2.xlsx,cue words2.xlsx,cue images2.xlsx,recog_task2.xlsx,recog_task_images2.xlsx,,timid,l,0,NoHit,2,,,,,,,,,,,,,,0,1,1,1,,,,,,,,,,,,,,,,,0,20,20,20,,,,,,,,,,,,,,,,,None,0,[],[],,,,,,,,,,,,99,A,2,2019_Jun_29_1442,PM,3.0.6,59.60654860307223,
PM_list_2.xlsx,PM_images_list_2.xlsx,cue words2.xlsx,cue images2.xlsx,recog_task2.xlsx,recog_task_images2.xlsx,,impair,h,10,NegL2,2,,,,,,,,,,,,,,0,1,1,1,,,,,,,,,,,,,,,,,0,21,21,21,,,,,,,,,,,,,,,,,None,0,[],0,,,,,,,,,,,,99,A,2,2019_Jun_29_1442,PM,3.0.6,59.60654860307223,
PM_list_2.xlsx,PM_images_list_2.xlsx,cue words2.xlsx,cue images2.xlsx,recog_task2.xlsx,recog_task_images2.xlsx,,timid,d,1,Hit,2,,,,,,,,,,,,,,0,1,1,1,,,,,,,,,,,,,,,,,0,22,22,22,,,,,,,,,,,,,,,,,None,0,[],[],,,,,,,,,,,,99,A,2,2019_Jun_29_1442,PM,3.0.6,59.60654860307223,
PM_list_2.xlsx,PM_images_list_2.xlsx,cue words2.xlsx,cue images2.xlsx,recog_task2.xlsx,recog_task_images2.xlsx,,handicap,l,0,NoHit,2,,,,,,,,,,,,,,0,1,1,1,,,,,,,,,,,,,,,,,0,23,23,23,,,,,,,,,,,,,,,,,None,0,[],[],,,,,,,,,,,,99,A,2,2019_Jun_29_1442,PM,3.0.6,59.60654860307223,
PM_list_2.xlsx,PM_images_list_2.xlsx,cue words2.xlsx,cue images2.xlsx,recog_task2.xlsx,recog_task_images2.xlsx,,utensil,l,0,NoHit,2,,,,,,,,,,,,,,0,1,1,1,,,,,,,,,,,,,,,,,0,24,24,24,,,,,,,,,,,,,,,,,None,0,[],[],,,,,,,,,,,,99,A,2,2019_Jun_29_1442,PM,3.0.6,59.60654860307223,
PM_list_2.xlsx,PM_images_list_2.xlsx,cue words2.xlsx,cue images2.xlsx,recog_task2.xlsx,recog_task_images2.xlsx,,thermometer,l,0,NoHit,2,,,,,,,,,,,,,,0,1,1,1,,,,,,,,,,,,,,,,,0,25,25,25,,,,,,,,,,,,,,,,,None,0,[],[],,,,,,,,,,,,99,A,2,2019_Jun_29_1442,PM,3.0.6,59.60654860307223,
PM_list_2.xlsx,PM_images_list_2.xlsx,cue words2.xlsx,cue images2.xlsx,recog_task2.xlsx,recog_task_images2.xlsx,,utensil,d,1,Hit,2,,,,,,,,,,,,,,0,1,1,1,,,,,,,,,,,,,,,,,0,26,26,26,,,,,,,,,,,,,,,,,None,0,[],[],,,,,,,,,,,,99,A,2,2019_Jun_29_1442,PM,3.0.6,59.60654860307223,
PM_list_2.xlsx,PM_images_list_2.xlsx,cue words2.xlsx,cue images2.xlsx,recog_task2.xlsx,recog_task_images2.xlsx,,fatigued,l,0,NoHit,2,,,,,,,,,,,,,,0,1,1,1,,,,,,,,,,,,,,,,,0,27,27,27,,,,,,,,,,,,,,,,,None,0,[],[],,,,,,,,,,,,99,A,2,2019_Jun_29_1442,PM,3.0.6,59.60654860307223,
PM_list_2.xlsx,PM_images_list_2.xlsx,cue words2.xlsx,cue images2.xlsx,recog_task2.xlsx,recog_task_images2.xlsx,,desire,l,0,NoHit,2,,,,,,,,,,,,,,0,1,1,1,,,,,,,,,,,,,,,,,0,28,28,28,,,,,,,,,,,,,,,,,None,0,[],[],,,,,,,,,,,,99,A,2,2019_Jun_29_1442,PM,3.0.6,59.60654860307223,
PM_list_2.xlsx,PM_images_list_2.xlsx,cue words2.xlsx,cue images2.xlsx,recog_task2.xlsx,recog_task_images2.xlsx,,discomfort,l,0,NoHit,2,,,,,,,,,,,,,,0,1,1,1,,,,,,,,,,,,,,,,,0,29,29,29,,,,,,,,,,,,,,,,,None,0,[],[],,,,,,,,,,,,99,A,2,2019_Jun_29_1442,PM,3.0.6,59.60654860307223,
PM_list_2.xlsx,PM_images_list_2.xlsx,cue words2.xlsx,cue images2.xlsx,recog_task2.xlsx,recog_task_images2.xlsx,,desire,d,1,Hit,2,,,,,,,,,,,,,,0,1,1,1,,,,,,,,,,,,,,,,,0,30,30,30,,,,,,,,,,,,,,,,,None,0,[],[],,,,,,,,,,,,99,A,2,2019_Jun_29_1442,PM,3.0.6,59.60654860307223,
PM_list_2.xlsx,PM_images_list_2.xlsx,cue words2.xlsx,cue images2.xlsx,recog_task2.xlsx,recog_task_images2.xlsx,,table,h,9,NeuL2,2,,,,,,,,,,,,,,0,1,1,1,,,,,,,,,,,,,,,,,0,31,31,31,,,,,,,,,,,,,,,,,None,0,[],0,,,,,,,,,,,,99,A,2,2019_Jun_29_1442,PM,3.0.6,59.60654860307223,
PM_list_2.xlsx,PM_images_list_2.xlsx,cue words2.xlsx,cue images2.xlsx,recog_task2.xlsx,recog_task_images2.xlsx,,bath,l,0,NoHit,2,,,,,,,,,,,,,,0,1,1,1,,,,,,,,,,,,,,,,,0,32,32,32,,,,,,,,,,,,,,,,,None,0,[],[],,,,,,,,,,,,99,A,2,2019_Jun_29_1442,PM,3.0.6,59.60654860307223,
PM_list_2.xlsx,PM_images_list_2.xlsx,cue words2.xlsx,cue images2.xlsx,recog_task2.xlsx,recog_task_images2.xlsx,,crucify,l,0,NoHit,2,,,,,,,,,,,,,,0,1,1,1,,,,,,,,,,,,,,,,,0,33,33,33,,,,,,,,,,,,,,,,,None,0,[],[],,,,,,,,,,,,99,A,2,2019_Jun_29_1442,PM,3.0.6,59.60654860307223,
PM_list_2.xlsx,PM_images_list_2.xlsx,cue words2.xlsx,cue images2.xlsx,recog_task2.xlsx,recog_task_images2.xlsx,,stomach,l,0,NoHit,2,,,,,,,,,,,,,,0,1,1,1,,,,,,,,,,,,,,,,,0,34,34,34,,,,,,,,,,,,,,,,,None,0,[],[],,,,,,,,,,,,99,A,2,2019_Jun_29_1442,PM,3.0.6,59.60654860307223,
PM_list_2.xlsx,PM_images_list_2.xlsx,cue words2.xlsx,cue images2.xlsx,recog_task2.xlsx,recog_task_images2.xlsx,,crucify,d,1,Hit,2,,,,,,,,,,,,,,0,1,1,1,,,,,,,,,,,,,,,,,0,35,35,35,,,,,,,,,,,,,,,,,None,0,[],[],,,,,,,,,,,,99,A,2,2019_Jun_29_1442,PM,3.0.6,59.60654860307223,
PM_list_2.xlsx,PM_images_list_2.xlsx,cue words2.xlsx,cue images2.xlsx,recog_task2.xlsx,recog_task_images2.xlsx,,accident,l,0,NoHit,2,,,,,,,,,,,,,,0,1,1,1,,,,,,,,,,,,,,,,,0,36,36,36,,,,,,,,,,,,,,,,,None,0,[],[],,,,,,,,,,,,99,A,2,2019_Jun_29_1442,PM,3.0.6,59.60654860307223,
PM_list_2.xlsx,PM_images_list_2.xlsx,cue words2.xlsx,cue images2.xlsx,recog_task2.xlsx,recog_task_images2.xlsx,,bird,l,0,NoHit,2,,,,,,,,,,,,,,0,1,1,1,,,,,,,,,,,,,,,,,0,37,37,37,,,,,,,,,,,,,,,,,None,0,[],[],,,,,,,,,,,,99,A,2,2019_Jun_29_1442,PM,3.0.6,59.60654860307223,
PM_list_2.xlsx,PM_images_list_2.xlsx,cue words2.xlsx,cue images2.xlsx,recog_task2.xlsx,recog_task_images2.xlsx,,couple,python,0,NoHit,2,,,,,,,,,,,,,,0,1,1,1,,,,,,,,,,,,,,,,,0,38,38,38,,,,,,,,,,,,,,,,,None,0,[],[],,,,,,,,,,,,99,A,2,2019_Jun_29_1442,PM,3.0.6,59.60654860307223,
PM_list_2.xlsx,PM_images_list_2.xlsx,cue words2.xlsx,cue images2.xlsx,recog_task2.xlsx,recog_task_images2.xlsx,,stiff,l,0,NoHit,2,,,,,,,,,,,,,,0,1,1,1,,,,,,,,,,,,,,,,,0,39,39,39,,,,,,,,,,,,,,,,,None,0,[],[],,,,,,,,,,,,99,A,2,2019_Jun_29_1442,PM,3.0.6,59.60654860307223,
PM_list_2.xlsx,PM_images_list_2.xlsx,cue words2.xlsx,cue images2.xlsx,recog_task2.xlsx,recog_task_images2.xlsx,,couple,d,1,Hit,2,,,,,,,,,,,,,,0,1,1,1,,,,,,,,,,,,,,,,,0,40,40,40,,,,,,,,,,,,,,,,,None,0,[],[],,,,,,,,,,,,99,A,2,2019_Jun_29_1442,PM,3.0.6,59.60654860307223,
PM_list_2.xlsx,PM_images_list_2.xlsx,cue words2.xlsx,cue images2.xlsx,recog_task2.xlsx,recog_task_images2.xlsx,,abuse,l,0,NoHit,2,,,,,,,,,,,,,,0,1,1,1,,,,,,,,,,,,,,,,,0,41,41,41,,,,,,,,,,,,,,,,,None,0,[],[],,,,,,,,,,,,99,A,2,2019_Jun_29_1442,PM,3.0.6,59.60654860307223,
PM_list_2.xlsx,PM_images_list_2.xlsx,cue words2.xlsx,cue images2.xlsx,recog_task2.xlsx,recog_task_images2.xlsx,,cozy,h,8,PosL2,2,,,,,,,,,,,,,,0,1,1,1,,,,,,,,,,,,,,,,,0,42,42,42,,,,,,,,,,,,,,,,,None,0,[],0,,,,,,,,,,,,99,A,2,2019_Jun_29_1442,PM,3.0.6,59.60654860307223,
PM_list_2.xlsx,PM_images_list_2.xlsx,cue words2.xlsx,cue images2.xlsx,recog_task2.xlsx,recog_task_images2.xlsx,,earth,l,0,NoHit,2,,,,,,,,,,,,,,0,1,1,1,,,,,,,,,,,,,,,,,0,43,43,43,,,,,,,,,,,,,,,,,None,0,[],[],,,,,,,,,,,,99,A,2,2019_Jun_29_1442,PM,3.0.6,59.60654860307223,
PM_list_2.xlsx,PM_images_list_2.xlsx,cue words2.xlsx,cue images2.xlsx,recog_task2.xlsx,recog_task_images2.xlsx,,tower,l,0,NoHit,2,,,,,,,,,,,,,,0,1,1,1,,,,,,,,,,,,,,,,,0,44,44,44,,,,,,,,,,,,,,,,,None,0,[],[],,,,,,,,,,,,99,A,2,2019_Jun_29_1442,PM,3.0.6,59.60654860307223,
PM_list_2.xlsx,PM_images_list_2.xlsx,cue words2.xlsx,cue images2.xlsx,recog_task2.xlsx,recog_task_images2.xlsx,,earth,d,1,Hit,2,,,,,,,,,,,,,,0,1,1,1,,,,,,,,,,,,,,,,,0,45,45,45,,,,,,,,,,,,,,,,,None,0,[],[],,,,,,,,,,,,99,A,2,2019_Jun_29_1442,PM,3.0.6,59.60654860307223,
PM_list_2.xlsx,PM_images_list_2.xlsx,cue words2.xlsx,cue images2.xlsx,recog_task2.xlsx,recog_task_images2.xlsx,,accident,l,0,NoHit,2,,,,,,,,,,,,,,0,1,1,1,,,,,,,,,,,,,,,,,0,46,46,46,,,,,,,,,,,,,,,,,None,0,[],[],,,,,,,,,,,,99,A,2,2019_Jun_29_1442,PM,3.0.6,59.60654860307223,
PM_list_2.xlsx,PM_images_list_2.xlsx,cue words2.xlsx,cue images2.xlsx,recog_task2.xlsx,recog_task_images2.xlsx,,overwhelmed,l,0,NoHit,2,,,,,,,,,,,,,,0,1,1,1,,,,,,,,,,,,,,,,,0,47,47,47,,,,,,,,,,,,,,,,,None,0,[],[],,,,,,,,,,,,99,A,2,2019_Jun_29_1442,PM,3.0.6,59.60654860307223,
PM_list_2.xlsx,PM_images_list_2.xlsx,cue words2.xlsx,cue images2.xlsx,recog_task2.xlsx,recog_task_images2.xlsx,,thermometer,l,0,NoHit,2,,,,,,,,,,,,,,0,1,1,1,,,,,,,,,,,,,,,,,0,48,48,48,,,,,,,,,,,,,,,,,None,0,[],[],,,,,,,,,,,,99,A,2,2019_Jun_29_1442,PM,3.0.6,59.60654860307223,
PM_list_2.xlsx,PM_images_list_2.xlsx,cue words2.xlsx,cue images2.xlsx,recog_task2.xlsx,recog_task_images2.xlsx,,overwhelmed,d,1,Hit,2,,,,,,,,,,,,,,0,1,1,1,,,,,,,,,,,,,,,,,0,49,49,49,,,,,,,,,,,,,,,,,None,0,[],[],,,,,,,,,,,,99,A,2,2019_Jun_29_1442,PM,3.0.6,59.60654860307223,
PM_list_2.xlsx,PM_images_list_2.xlsx,cue words2.xlsx,cue images2.xlsx,recog_task2.xlsx,recog_task_images2.xlsx,,weary,l,0,NoHit,2,,,,,,,,,,,,,,0,1,1,1,,,,,,,,,,,,,,,,,0,50,50,50,,,,,,,,,,,,,,,,,None,0,[],[],,,,,,,,,,,,99,A,2,2019_Jun_29_1442,PM,3.0.6,59.60654860307223,
PM_list_2.xlsx,PM_images_list_2.xlsx,cue words2.xlsx,cue images2.xlsx,recog_task2.xlsx,recog_task_images2.xlsx,,python,h,12,NeuH2,2,,,,,,,,,,,,,,0,1,1,1,,,,,,,,,,,,,,,,,0,51,51,51,,,,,,,,,,,,,,,,,None,0,[],0,,,,,,,,,,,,99,A,2,2019_Jun_29_1442,PM,3.0.6,59.60654860307223,
PM_list_2.xlsx,PM_images_list_2.xlsx,cue words2.xlsx,cue images2.xlsx,recog_task2.xlsx,recog_task_images2.xlsx,,chaos,l,0,NoHit,2,,,,,,,,,,,,,,0,1,1,1,,,,,,,,,,,,,,,,,0,52,52,52,,,,,,,,,,,,,,,,,None,0,[],[],,,,,,,,,,,,99,A,2,2019_Jun_29_1442,PM,3.0.6,59.60654860307223,
PM_list_2.xlsx,PM_images_list_2.xlsx,cue words2.xlsx,cue images2.xlsx,recog_task2.xlsx,recog_task_images2.xlsx,,handicap,l,0,NoHit,2,,,,,,,,,,,,,,0,1,1,1,,,,,,,,,,,,,,,,,0,53,53,53,,,,,,,,,,,,,,,,,None,0,[],[],,,,,,,,,,,,99,A,2,2019_Jun_29_1442,PM,3.0.6,59.60654860307223,
PM_list_2.xlsx,PM_images_list_2.xlsx,cue words2.xlsx,cue images2.xlsx,recog_task2.xlsx,recog_task_images2.xlsx,,chaos,d,1,Hit,2,,,,,,,,,,,,,,0,1,1,1,,,,,,,,,,,,,,,,,0,54,54,54,,,,,,,,,,,,,,,,,None,0,[],[],,,,,,,,,,,,99,A,2,2019_Jun_29_1442,PM,3.0.6,59.60654860307223,
PM_list_2.xlsx,PM_images_list_2.xlsx,cue words2.xlsx,cue images2.xlsx,recog_task2.xlsx,recog_task_images2.xlsx,,trunk,l,0,NoHit,2,,,,,,,,,,,,,,0,1,1,1,,,,,,,,,,,,,,,,,0,55,55,55,,,,,,,,,,,,,,,,,None,0,[],[],,,,,,,,,,,,99,A,2,2019_Jun_29_1442,PM,3.0.6,59.60654860307223,
PM_list_2.xlsx,PM_images_list_2.xlsx,cue words2.xlsx,cue images2.xlsx,recog_task2.xlsx,recog_task_images2.xlsx,,spray,l,0,NoHit,2,,,,,,,,,,,,,,0,1,1,1,,,,,,,,,,,,,,,,,0,56,56,56,,,,,,,,,,,,,,,,,None,0,[],[],,,,,,,,,,,,99,A,2,2019_Jun_29_1442,PM,3.0.6,59.60654860307223,
PM_list_2.xlsx,PM_images_list_2.xlsx,cue words2.xlsx,cue images2.xlsx,recog_task2.xlsx,recog_task_images2.xlsx,,crash,l,0,NoHit,2,,,,,,,,,,,,,,0,1,1,1,,,,,,,,,,,,,,,,,0,57,57,57,,,,,,,,,,,,,,,,,None,0,[],[],,,,,,,,,,,,99,A,2,2019_Jun_29_1442,PM,3.0.6,59.60654860307223,
PM_list_2.xlsx,PM_images_list_2.xlsx,cue words2.xlsx,cue images2.xlsx,recog_task2.xlsx,recog_task_images2.xlsx,,dignified,l,0,NoHit,2,,,,,,,,,,,,,,0,1,1,1,,,,,,,,,,,,,,,,,0,58,58,58,,,,,,,,,,,,,,,,,None,0,[],[],,,,,,,,,,,,99,A,2,2019_Jun_29_1442,PM,3.0.6,59.60654860307223,
PM_list_2.xlsx,PM_images_list_2.xlsx,cue words2.xlsx,cue images2.xlsx,recog_task2.xlsx,recog_task_images2.xlsx,,crash,d,1,Hit,2,,,,,,,,,,,,,,0,1,1,1,,,,,,,,,,,,,,,,,0,59,59,59,,,,,,,,,,,,,,,,,None,0,[],[],,,,,,,,,,,,99,A,2,2019_Jun_29_1442,PM,3.0.6,59.60654860307223,
PM_list_2.xlsx,PM_images_list_2.xlsx,cue words2.xlsx,cue images2.xlsx,recog_task2.xlsx,recog_task_images2.xlsx,,divorce,h,13,NegH2,2,,,,,,,,,,,,,,0,1,1,1,,,,,,,,,,,,,,,,,0,60,60,60,,,,,,,,,,,,,,,,,None,0,[],0,,,,,,,,,,,,99,A,2,2019_Jun_29_1442,PM,3.0.6,59.60654860307223,
PM_list_2.xlsx,PM_images_list_2.xlsx,cue words2.xlsx,cue images2.xlsx,recog_task2.xlsx,recog_task_images2.xlsx,,bed,l,0,NoHit,2,,,,,,,,,,,,,,0,1,1,1,,,,,,,,,,,,,,,,,0,61,61,61,,,,,,,,,,,,,,,,,None,0,[],[],,,,,,,,,,,,99,A,2,2019_Jun_29_1442,PM,3.0.6,59.60654860307223,
PM_list_2.xlsx,PM_images_list_2.xlsx,cue words2.xlsx,cue images2.xlsx,recog_task2.xlsx,recog_task_images2.xlsx,,easy,l,0,NoHit,2,,,,,,,,,,,,,,0,1,1,1,,,,,,,,,,,,,,,,,0,62,62,62,,,,,,,,,,,,,,,,,None,0,[],[],,,,,,,,,,,,99,A,2,2019_Jun_29_1442,PM,3.0.6,59.60654860307223,
PM_list_2.xlsx,PM_images_list_2.xlsx,cue words2.xlsx,cue images2.xlsx,recog_task2.xlsx,recog_task_images2.xlsx,,bed,d,1,Hit,2,,,,,,,,,,,,,,0,1,1,1,,,,,,,,,,,,,,,,,0,63,63,63,,,,,,,,,,,,,,,,,None,0,[],[],,,,,,,,,,,,99,A,2,2019_Jun_29_1442,PM,3.0.6,59.60654860307223,
PM_list_2.xlsx,PM_images_list_2.xlsx,cue words2.xlsx,cue images2.xlsx,recog_task2.xlsx,recog_task_images2.xlsx,,disaster,l,0,NoHit,2,,,,,,,,,,,,,,0,1,1,1,,,,,,,,,,,,,,,,,0,64,64,64,,,,,,,,,,,,,,,,,None,0,[],[],,,,,,,,,,,,99,A,2,2019_Jun_29_1442,PM,3.0.6,59.60654860307223,
PM_list_2.xlsx,PM_images_list_2.xlsx,cue words2.xlsx,cue images2.xlsx,recog_task2.xlsx,recog_task_images2.xlsx,,stomach,l,0,NoHit,2,,,,,,,,,,,,,,0,1,1,1,,,,,,,,,,,,,,,,,0,65,65,65,,,,,,,,,,,,,,,,,None,0,[],[],,,,,,,,,,,,99,A,2,2019_Jun_29_1442,PM,3.0.6,59.60654860307223,
PM_list_2.xlsx,PM_images_list_2.xlsx,cue words2.xlsx,cue images2.xlsx,recog_task2.xlsx,recog_task_images2.xlsx,,disaster,d,1,Hit,2,,,,,,,,,,,,,,0,1,1,1,,,,,,,,,,,,,,,,,0,66,66,66,,,,,,,,,,,,,,,,,None,0,[],[],,,,,,,,,,,,99,A,2,2019_Jun_29_1442,PM,3.0.6,59.60654860307223,
PM_list_2.xlsx,PM_images_list_2.xlsx,cue words2.xlsx,cue images2.xlsx,recog_task2.xlsx,recog_task_images2.xlsx,,bird,l,0,NoHit,2,,,,,,,,,,,,,,0,1,1,1,,,,,,,,,,,,,,,,,0,67,67,67,,,,,,,,,,,,,,,,,None,0,[],[],,,,,,,,,,,,99,A,2,2019_Jun_29_1442,PM,3.0.6,59.60654860307223,
PM_list_2.xlsx,PM_images_list_2.xlsx,cue words2.xlsx,cue images2.xlsx,recog_task2.xlsx,recog_task_images2.xlsx,,dump,l,0,NoHit,2,,,,,,,,,,,,,,0,1,1,1,,,,,,,,,,,,,,,,,0,68,68,68,,,,,,,,,,,,,,,,,None,0,[],[],,,,,,,,,,,,99,A,2,2019_Jun_29_1442,PM,3.0.6,59.60654860307223,
PM_list_2.xlsx,PM_images_list_2.xlsx,cue words2.xlsx,cue images2.xlsx,recog_task2.xlsx,recog_task_images2.xlsx,,cuddle,l,0,NoHit,2,,,,,,,,,,,,,,0,1,1,1,,,,,,,,,,,,,,,,,0,69,69,69,,,,,,,,,,,,,,,,,None,0,[],[],,,,,,,,,,,,99,A,2,2019_Jun_29_1442,PM,3.0.6,59.60654860307223,
PM_list_2.xlsx,PM_images_list_2.xlsx,cue words2.xlsx,cue images2.xlsx,recog_task2.xlsx,recog_task_images2.xlsx,,dollar,h,11,PosH2,2,,,,,,,,,,,,,,0,1,1,1,,,,,,,,,,,,,,,,,0,70,70,70,,,,,,,,,,,,,,,,,None,0,[],0,,,,,,,,,,,,99,A,2,2019_Jun_29_1442,PM,3.0.6,59.60654860307223,
PM_list_2.xlsx,PM_images_list_2.xlsx,cue words2.xlsx,cue images2.xlsx,recog_task2.xlsx,recog_task_images2.xlsx,,cuddle,d,1,Hit,2,,,,,,,,,,,,,,0,1,1,1,,,,,,,,,,,,,,,,,0,71,71,71,,,,,,,,,,,,,,,,,None,0,[],[],,,,,,,,,,,,99,A,2,2019_Jun_29_1442,PM,3.0.6,59.60654860307223,
PM_list_2.xlsx,PM_images_list_2.xlsx,cue words2.xlsx,cue images2.xlsx,recog_task2.xlsx,recog_task_images2.xlsx,,assault,l,0,NoHit,2,,,,,,,,,,,,,,0,1,1,1,,,,,,,,,,,,,,,,,0,72,72,72,,,,,,,,,,,,,,,,,None,0,[],[],,,,,,,,,,,,99,A,2,2019_Jun_29_1442,PM,3.0.6,59.60654860307223,
PM_list_2.xlsx,PM_images_list_2.xlsx,cue words2.xlsx,cue images2.xlsx,recog_task2.xlsx,recog_task_images2.xlsx,,trash,l,0,NoHit,2,,,,,,,,,,,,,,0,1,1,1,,,,,,,,,,,,,,,,,0,73,73,73,,,,,,,,,,,,,,,,,None,0,[],[],,,,,,,,,,,,99,A,2,2019_Jun_29_1442,PM,3.0.6,59.60654860307223,
PM_list_2.xlsx,PM_images_list_2.xlsx,cue words2.xlsx,cue images2.xlsx,recog_task2.xlsx,recog_task_images2.xlsx,,ecstasy,l,0,NoHit,2,,,,,,,,,,,,,,0,1,1,1,,,,,,,,,,,,,,,,,0,74,74,74,,,,,,,,,,,,,,,,,None,0,[],[],,,,,,,,,,,,99,A,2,2019_Jun_29_1442,PM,3.0.6,59.60654860307223,
PM_list_2.xlsx,PM_images_list_2.xlsx,cue words2.xlsx,cue images2.xlsx,recog_task2.xlsx,recog_task_images2.xlsx,,abuse,l,0,NoHit,2,,,,,,,,,,,,,,0,1,1,1,,,,,,,,,,,,,,,,,0,75,75,75,,,,,,,,,,,,,,,,,None,0,[],[],,,,,,,,,,,,99,A,2,2019_Jun_29_1442,PM,3.0.6,59.60654860307223,
PM_list_2.xlsx,PM_images_list_2.xlsx,cue words2.xlsx,cue images2.xlsx,recog_task2.xlsx,recog_task_images2.xlsx,,ecstasy,d,1,Hit,2,,,,,,,,,,,,,,0,1,1,1,,,,,,,,,,,,,,,,,0,76,76,76,,,,,,,,,,,,,,,,,None,0,[],[],,,,,,,,,,,,99,A,2,2019_Jun_29_1442,PM,3.0.6,59.60654860307223,
PM_list_2.xlsx,PM_images_list_2.xlsx,cue words2.xlsx,cue images2.xlsx,recog_task2.xlsx,recog_task_images2.xlsx,,fatigued,l,0,NoHit,2,,,,,,,,,,,,,,0,1,1,1,,,,,,,,,,,,,,,,,0,77,77,77,,,,,,,,,,,,,,,,,None,0,[],[],,,,,,,,,,,,99,A,2,2019_Jun_29_1442,PM,3.0.6,59.60654860307223,
PM_list_2.xlsx,PM_images_list_2.xlsx,cue words2.xlsx,cue images2.xlsx,recog_task2.xlsx,recog_task_images2.xlsx,,urine,l,0,NoHit,2,,,,,,,,,,,,,,0,1,1,1,,,,,,,,,,,,,,,,,0,78,78,78,,,,,,,,,,,,,,,,,None,0,[],[],,,,,,,,,,,,99,A,2,2019_Jun_29_1442,PM,3.0.6,59.60654860307223,
PM_list_2.xlsx,PM_images_list_2.xlsx,cue words2.xlsx,cue images2.xlsx,recog_task2.xlsx,recog_task_images2.xlsx,,waste,l,0,NoHit,2,,,,,,,,,,,,,,0,1,1,1,,,,,,,,,,,,,,,,,0,79,79,79,,,,,,,,,,,,,,,,,None,0,[],[],,,,,,,,,,,,99,A,2,2019_Jun_29_1442,PM,3.0.6,59.60654860307223,
PM_list_2.xlsx,PM_images_list_2.xlsx,cue words2.xlsx,cue images2.xlsx,recog_task2.xlsx,recog_task_images2.xlsx,,assault,l,0,NoHit,2,,,,,,,,,,,,,,0,1,1,1,,,,,,,,,,,,,,,,,0,80,80,80,,,,,,,,,,,,,,,,,None,0,[],[],,,,,,,,,,,,99,A,2,2019_Jun_29_1442,PM,3.0.6,59.60654860307223,
PM_list_2.xlsx,PM_images_list_2.xlsx,cue words2.xlsx,cue images2.xlsx,recog_task2.xlsx,recog_task_images2.xlsx,,waste,d,1,Hit,2,,,,,,,,,,,,,,0,1,1,1,,,,,,,,,,,,,,,,,0,81,81,81,,,,,,,,,,,,,,,,,None,0,[],[],,,,,,,,,,,,99,A,2,2019_Jun_29_1442,PM,3.0.6,59.60654860307223,
PM_list_2.xlsx,PM_images_list_2.xlsx,cue words2.xlsx,cue images2.xlsx,recog_task2.xlsx,recog_task_images2.xlsx,,cozy,h,8,PosL2,2,,,,,,,,,,,,,,0,1,1,1,,,,,,,,,,,,,,,,,0,82,82,82,,,,,,,,,,,,,,,,,None,0,[],0,,,,,,,,,,,,99,A,2,2019_Jun_29_1442,PM,3.0.6,59.60654860307223,
PM_list_2.xlsx,PM_images_list_2.xlsx,cue words2.xlsx,cue images2.xlsx,recog_task2.xlsx,recog_task_images2.xlsx,,sad,l,0,NoHit,2,,,,,,,,,,,,,,0,1,1,1,,,,,,,,,,,,,,,,,0,83,83,83,,,,,,,,,,,,,,,,,None,0,[],[],,,,,,,,,,,,99,A,2,2019_Jun_29_1442,PM,3.0.6,59.60654860307223,
PM_list_2.xlsx,PM_images_list_2.xlsx,cue words2.xlsx,cue images2.xlsx,recog_task2.xlsx,recog_task_images2.xlsx,,scream,l,0,NoHit,2,,,,,,,,,,,,,,0,1,1,1,,,,,,,,,,,,,,,,,0,84,84,84,,,,,,,,,,,,,,,,,None,0,[],[],,,,,,,,,,,,99,A,2,2019_Jun_29_1442,PM,3.0.6,59.60654860307223,
PM_list_2.xlsx,PM_images_list_2.xlsx,cue words2.xlsx,cue images2.xlsx,recog_task2.xlsx,recog_task_images2.xlsx,,sad,d,1,Hit,2,,,,,,,,,,,,,,0,1,1,1,,,,,,,,,,,,,,,,,0,85,85,85,,,,,,,,,,,,,,,,,None,0,[],[],,,,,,,,,,,,99,A,2,2019_Jun_29_1442,PM,3.0.6,59.60654860307223,
PM_list_2.xlsx,PM_images_list_2.xlsx,cue words2.xlsx,cue images2.xlsx,recog_task2.xlsx,recog_task_images2.xlsx,,outrage,l,0,NoHit,2,,,,,,,,,,,,,,0,1,1,1,,,,,,,,,,,,,,,,,0,86,86,86,,,,,,,,,,,,,,,,,None,0,[],[],,,,,,,,,,,,99,A,2,2019_Jun_29_1442,PM,3.0.6,59.60654860307223,
PM_list_2.xlsx,PM_images_list_2.xlsx,cue words2.xlsx,cue images2.xlsx,recog_task2.xlsx,recog_task_images2.xlsx,,wagon,l,0,NoHit,2,,,,,,,,,,,,,,0,1,1,1,,,,,,,,,,,,,,,,,0,87,87,87,,,,,,,,,,,,,,,,,None,0,[],[],,,,,,,,,,,,99,A,2,2019_Jun_29_1442,PM,3.0.6,59.60654860307223,
PM_list_2.xlsx,PM_images_list_2.xlsx,cue words2.xlsx,cue images2.xlsx,recog_task2.xlsx,recog_task_images2.xlsx,,stagnant,l,0,NoHit,2,,,,,,,,,,,,,,0,1,1,1,,,,,,,,,,,,,,,,,0,88,88,88,,,,,,,,,,,,,,,,,None,0,[],[],,,,,,,,,,,,99,A,2,2019_Jun_29_1442,PM,3.0.6,59.60654860307223,
PM_list_2.xlsx,PM_images_list_2.xlsx,cue words2.xlsx,cue images2.xlsx,recog_task2.xlsx,recog_task_images2.xlsx,,wagon,d,1,Hit,2,,,,,,,,,,,,,,0,1,1,1,,,,,,,,,,,,,,,,,0,89,89,89,,,,,,,,,,,,,,,,,None,0,[],[],,,,,,,,,,,,99,A,2,2019_Jun_29_1442,PM,3.0.6,59.60654860307223,
PM_list_2.xlsx,PM_images_list_2.xlsx,cue words2.xlsx,cue images2.xlsx,recog_task2.xlsx,recog_task_images2.xlsx,,comfort,l,0,NoHit,2,,,,,,,,,,,,,,0,1,1,1,,,,,,,,,,,,,,,,,0,90,90,90,,,,,,,,,,,,,,,,,None,0,[],[],,,,,,,,,,,,99,A,2,2019_Jun_29_1442,PM,3.0.6,59.60654860307223,
PM_list_2.xlsx,PM_images_list_2.xlsx,cue words2.xlsx,cue images2.xlsx,recog_task2.xlsx,recog_task_images2.xlsx,,urine,l,0,NoHit,2,,,,,,,,,,,,,,0,1,1,1,,,,,,,,,,,,,,,,,0,91,91,91,,,,,,,,,,,,,,,,,None,0,[],[],,,,,,,,,,,,99,A,2,2019_Jun_29_1442,PM,3.0.6,59.60654860307223,
PM_list_2.xlsx,PM_images_list_2.xlsx,cue words2.xlsx,cue images2.xlsx,recog_task2.xlsx,recog_task_images2.xlsx,,suspicious,l,0,NoHit,2,,,,,,,,,,,,,,0,1,1,1,,,,,,,,,,,,,,,,,0,92,92,92,,,,,,,,,,,,,,,,,None,0,[],[],,,,,,,,,,,,99,A,2,2019_Jun_29_1442,PM,3.0.6,59.60654860307223,
PM_list_2.xlsx,PM_images_list_2.xlsx,cue words2.xlsx,cue images2.xlsx,recog_task2.xlsx,recog_task_images2.xlsx,,table,h,9,NeuL2,2,,,,,,,,,,,,,,0,1,1,1,,,,,,,,,,,,,,,,,0,93,93,93,,,,,,,,,,,,,,,,,None,0,[],0,,,,,,,,,,,,99,A,2,2019_Jun_29_1442,PM,3.0.6,59.60654860307223,
PM_list_2.xlsx,PM_images_list_2.xlsx,cue words2.xlsx,cue images2.xlsx,recog_task2.xlsx,recog_task_images2.xlsx,,suspicious,d,1,Hit,2,,,,,,,,,,,,,,0,1,1,1,,,,,,,,,,,,,,,,,0,94,94,94,,,,,,,,,,,,,,,,,None,0,[],[],,,,,,,,,,,,99,A,2,2019_Jun_29_1442,PM,3.0.6,59.60654860307223,
PM_list_2.xlsx,PM_images_list_2.xlsx,cue words2.xlsx,cue images2.xlsx,recog_task2.xlsx,recog_task_images2.xlsx,,discomfort,l,0,NoHit,2,,,,,,,,,,,,,,0,1,1,1,,,,,,,,,,,,,,,,,0,95,95,95,,,,,,,,,,,,,,,,,None,0,[],[],,,,,,,,,,,,99,A,2,2019_Jun_29_1442,PM,3.0.6,59.60654860307223,
PM_list_2.xlsx,PM_images_list_2.xlsx,cue words2.xlsx,cue images2.xlsx,recog_task2.xlsx,recog_task_images2.xlsx,,betray,l,0,NoHit,2,,,,,,,,,,,,,,0,1,1,1,,,,,,,,,,,,,,,,,0,96,96,96,,,,,,,,,,,,,,,,,None,0,[],[],,,,,,,,,,,,99,A,2,2019_Jun_29_1442,PM,3.0.6,59.60654860307223,
PM_list_2.xlsx,PM_images_list_2.xlsx,cue words2.xlsx,cue images2.xlsx,recog_task2.xlsx,recog_task_images2.xlsx,,scream,l,0,NoHit,2,,,,,,,,,,,,,,0,1,1,1,,,,,,,,,,,,,,,,,0,97,97,97,,,,,,,,,,,,,,,,,None,0,[],[],,,,,,,,,,,,99,A,2,2019_Jun_29_1442,PM,3.0.6,59.60654860307223,
PM_list_2.xlsx,PM_images_list_2.xlsx,cue words2.xlsx,cue images2.xlsx,recog_task2.xlsx,recog_task_images2.xlsx,,betray,d,1,Hit,2,,,,,,,,,,,,,,0,1,1,1,,,,,,,,,,,,,,,,,0,98,98,98,,,,,,,,,,,,,,,,,None,0,[],[],,,,,,,,,,,,99,A,2,2019_Jun_29_1442,PM,3.0.6,59.60654860307223,
PM_list_2.xlsx,PM_images_list_2.xlsx,cue words2.xlsx,cue images2.xlsx,recog_task2.xlsx,recog_task_images2.xlsx,,vampire,l,0,NoHit,2,,,,,,,,,,,,,,0,1,1,1,,,,,,,,,,,,,,,,,0,99,99,99,,,,,,,,,,,,,,,,,None,0,[],[],,,,,,,,,,,,99,A,2,2019_Jun_29_1442,PM,3.0.6,59.60654860307223,
PM_list_2.xlsx,PM_images_list_2.xlsx,cue words2.xlsx,cue images2.xlsx,recog_task2.xlsx,recog_task_images2.xlsx,,trash,l,0,NoHit,2,,,,,,,,,,,,,,0,1,1,1,,,,,,,,,,,,,,,,,0,100,100,100,,,,,,,,,,,,,,,,,None,0,[],[],,,,,,,,,,,,99,A,2,2019_Jun_29_1442,PM,3.0.6,59.60654860307223,
PM_list_2.xlsx,PM_images_list_2.xlsx,cue words2.xlsx,cue images2.xlsx,recog_task2.xlsx,recog_task_images2.xlsx,,vampire,d,1,Hit,2,,,,,,,,,,,,,,0,1,1,1,,,,,,,,,,,,,,,,,0,101,101,101,,,,,,,,,,,,,,,,,None,0,[],[],,,,,,,,,,,,99,A,2,2019_Jun_29_1442,PM,3.0.6,59.60654860307223,
PM_list_2.xlsx,PM_images_list_2.xlsx,cue words2.xlsx,cue images2.xlsx,recog_task2.xlsx,recog_task_images2.xlsx,,kind,l,0,NoHit,2,,,,,,,,,,,,,,0,1,1,1,,,,,,,,,,,,,,,,,0,102,102,102,,,,,,,,,,,,,,,,,None,0,[],[],,,,,,,,,,,,99,A,2,2019_Jun_29_1442,PM,3.0.6,59.60654860307223,
PM_list_2.xlsx,PM_images_list_2.xlsx,cue words2.xlsx,cue images2.xlsx,recog_task2.xlsx,recog_task_images2.xlsx,,elated,l,0,NoHit,2,,,,,,,,,,,,,,0,1,1,1,,,,,,,,,,,,,,,,,0,103,103,103,,,,,,,,,,,,,,,,,None,0,[],[],,,,,,,,,,,,99,A,2,2019_Jun_29_1442,PM,3.0.6,59.60654860307223,
PM_list_2.xlsx,PM_images_list_2.xlsx,cue words2.xlsx,cue images2.xlsx,recog_task2.xlsx,recog_task_images2.xlsx,,kind,d,1,Hit,2,,,,,,,,,,,,,,0,1,1,1,,,,,,,,,,,,,,,,,0,104,104,104,,,,,,,,,,,,,,,,,None,0,[],[],,,,,,,,,,,,99,A,2,2019_Jun_29_1442,PM,3.0.6,59.60654860307223,
PM_list_2.xlsx,PM_images_list_2.xlsx,cue words2.xlsx,cue images2.xlsx,recog_task2.xlsx,recog_task_images2.xlsx,,divorce,h,13,NegH2,2,,,,,,,,,,,,,,0,1,1,1,,,,,,,,,,,,,,,,,0,105,105,105,,,,,,,,,,,,,,,,,None,0,[],0,,,,,,,,,,,,99,A,2,2019_Jun_29_1442,PM,3.0.6,59.60654860307223,
PM_list_2.xlsx,PM_images_list_2.xlsx,cue words2.xlsx,cue images2.xlsx,recog_task2.xlsx,recog_task_images2.xlsx,,mucus,l,0,NoHit,2,,,,,,,,,,,,,,0,1,1,1,,,,,,,,,,,,,,,,,0,106,106,106,,,,,,,,,,,,,,,,,None,0,[],[],,,,,,,,,,,,99,A,2,2019_Jun_29_1442,PM,3.0.6,59.60654860307223,
PM_list_2.xlsx,PM_images_list_2.xlsx,cue words2.xlsx,cue images2.xlsx,recog_task2.xlsx,recog_task_images2.xlsx,,christmas,l,0,NoHit,2,,,,,,,,,,,,,,0,1,1,1,,,,,,,,,,,,,,,,,0,107,107,107,,,,,,,,,,,,,,,,,None,0,[],[],,,,,,,,,,,,99,A,2,2019_Jun_29_1442,PM,3.0.6,59.60654860307223,
PM_list_2.xlsx,PM_images_list_2.xlsx,cue words2.xlsx,cue images2.xlsx,recog_task2.xlsx,recog_task_images2.xlsx,,stink,l,0,NoHit,2,,,,,,,,,,,,,,0,1,1,1,,,,,,,,,,,,,,,,,0,108,108,108,,,,,,,,,,,,,,,,,None,0,[],[],,,,,,,,,,,,99,A,2,2019_Jun_29_1442,PM,3.0.6,59.60654860307223,
PM_list_2.xlsx,PM_images_list_2.xlsx,cue words2.xlsx,cue images2.xlsx,recog_task2.xlsx,recog_task_images2.xlsx,,christmas,d,1,Hit,2,,,,,,,,,,,,,,0,1,1,1,,,,,,,,,,,,,,,,,0,109,109,109,,,,,,,,,,,,,,,,,None,0,[],[],,,,,,,,,,,,99,A,2,2019_Jun_29_1442,PM,3.0.6,59.60654860307223,
PM_list_2.xlsx,PM_images_list_2.xlsx,cue words2.xlsx,cue images2.xlsx,recog_task2.xlsx,recog_task_images2.xlsx,,admired,l,0,NoHit,2,,,,,,,,,,,,,,0,1,1,1,,,,,,,,,,,,,,,,,0,110,110,110,,,,,,,,,,,,,,,,,None,0,[],[],,,,,,,,,,,,99,A,2,2019_Jun_29_1442,PM,3.0.6,59.60654860307223,
PM_list_2.xlsx,PM_images_list_2.xlsx,cue words2.xlsx,cue images2.xlsx,recog_task2.xlsx,recog_task_images2.xlsx,,despise,l,0,NoHit,2,,,,,,,,,,,,,,0,1,1,1,,,,,,,,,,,,,,,,,0,111,111,111,,,,,,,,,,,,,,,,,None,0,[],[],,,,,,,,,,,,99,A,2,2019_Jun_29_1442,PM,3.0.6,59.60654860307223,
PM_list_2.xlsx,PM_images_list_2.xlsx,cue words2.xlsx,cue images2.xlsx,recog_task2.xlsx,recog_task_images2.xlsx,,engaged,l,0,NoHit,2,,,,,,,,,,,,,,0,1,1,1,,,,,,,,,,,,,,,,,0,112,112,112,,,,,,,,,,,,,,,,,None,0,[],[],,,,,,,,,,,,99,A,2,2019_Jun_29_1442,PM,3.0.6,59.60654860307223,
PM_list_2.xlsx,PM_images_list_2.xlsx,cue words2.xlsx,cue images2.xlsx,recog_task2.xlsx,recog_task_images2.xlsx,,despise,d,1,Hit,2,,,,,,,,,,,,,,0,1,1,1,,,,,,,,,,,,,,,,,0,113,113,113,,,,,,,,,,,,,,,,,None,0,[],[],,,,,,,,,,,,99,A,2,2019_Jun_29_1442,PM,3.0.6,59.60654860307223,
PM_list_2.xlsx,PM_images_list_2.xlsx,cue words2.xlsx,cue images2.xlsx,recog_task2.xlsx,recog_task_images2.xlsx,,elated,l,0,NoHit,2,,,,,,,,,,,,,,0,1,1,1,,,,,,,,,,,,,,,,,0,114,114,114,,,,,,,,,,,,,,,,,None,0,[],[],,,,,,,,,,,,99,A,2,2019_Jun_29_1442,PM,3.0.6,59.60654860307223,
PM_list_2.xlsx,PM_images_list_2.xlsx,cue words2.xlsx,cue images2.xlsx,recog_task2.xlsx,recog_task_images2.xlsx,,lightning,l,0,NoHit,2,,,,,,,,,,,,,,0,1,1,1,,,,,,,,,,,,,,,,,0,115,115,115,,,,,,,,,,,,,,,,,None,0,[],[],,,,,,,,,,,,99,A,2,2019_Jun_29_1442,PM,3.0.6,59.60654860307223,
PM_list_2.xlsx,PM_images_list_2.xlsx,cue words2.xlsx,cue images2.xlsx,recog_task2.xlsx,recog_task_images2.xlsx,,umbrella,l,0,NoHit,2,,,,,,,,,,,,,,0,1,1,1,,,,,,,,,,,,,,,,,0,116,116,116,,,,,,,,,,,,,,,,,None,0,[],[],,,,,,,,,,,,99,A,2,2019_Jun_29_1442,PM,3.0.6,59.60654860307223,
PM_list_2.xlsx,PM_images_list_2.xlsx,cue words2.xlsx,cue images2.xlsx,recog_task2.xlsx,recog_task_images2.xlsx,,impair,h,10,NegL2,2,,,,,,,,,,,,,,0,1,1,1,,,,,,,,,,,,,,,,,0,117,117,117,,,,,,,,,,,,,,,,,None,0,[],0,,,,,,,,,,,,99,A,2,2019_Jun_29_1442,PM,3.0.6,59.60654860307223,
PM_list_2.xlsx,PM_images_list_2.xlsx,cue words2.xlsx,cue images2.xlsx,recog_task2.xlsx,recog_task_images2.xlsx,,umbrella,d,1,Hit,2,,,,,,,,,,,,,,0,1,1,1,,,,,,,,,,,,,,,,,0,118,118,118,,,,,,,,,,,,,,,,,None,0,[],[],,,,,,,,,,,,99,A,2,2019_Jun_29_1442,PM,3.0.6,59.60654860307223,
PM_list_2.xlsx,PM_images_list_2.xlsx,cue words2.xlsx,cue images2.xlsx,recog_task2.xlsx,recog_task_images2.xlsx,,weary,l,0,NoHit,2,,,,,,,,,,,,,,0,1,1,1,,,,,,,,,,,,,,,,,0,119,119,119,,,,,,,,,,,,,,,,,None,0,[],[],,,,,,,,,,,,99,A,2,2019_Jun_29_1442,PM,3.0.6,59.60654860307223,
PM_list_2.xlsx,PM_images_list_2.xlsx,cue words2.xlsx,cue images2.xlsx,recog_task2.xlsx,recog_task_images2.xlsx,,lightning,l,0,NoHit,2,,,,,,,,,,,,,,0,1,1,1,,,,,,,,,,,,,,,,,0,120,120,120,,,,,,,,,,,,,,,,,None,0,[],[],,,,,,,,,,,,99,A,2,2019_Jun_29_1442,PM,3.0.6,59.60654860307223,
PM_list_2.xlsx,PM_images_list_2.xlsx,cue words2.xlsx,cue images2.xlsx,recog_task2.xlsx,recog_task_images2.xlsx,,peace,l,0,NoHit,2,,,,,,,,,,,,,,0,1,1,1,,,,,,,,,,,,,,,,,0,121,121,121,,,,,,,,,,,,,,,,,None,0,[],[],,,,,,,,,,,,99,A,2,2019_Jun_29_1442,PM,3.0.6,59.60654860307223,
PM_list_2.xlsx,PM_images_list_2.xlsx,cue words2.xlsx,cue images2.xlsx,recog_task2.xlsx,recog_task_images2.xlsx,,mucus,l,0,NoHit,2,,,,,,,,,,,,,,0,1,1,1,,,,,,,,,,,,,,,,,0,122,122,122,,,,,,,,,,,,,,,,,None,0,[],[],,,,,,,,,,,,99,A,2,2019_Jun_29_1442,PM,3.0.6,59.60654860307223,
PM_list_2.xlsx,PM_images_list_2.xlsx,cue words2.xlsx,cue images2.xlsx,recog_task2.xlsx,recog_task_images2.xlsx,,peace,d,1,Hit,2,,,,,,,,,,,,,,0,1,1,1,,,,,,,,,,,,,,,,,0,123,123,123,,,,,,,,,,,,,,,,,None,0,[],[],,,,,,,,,,,,99,A,2,2019_Jun_29_1442,PM,3.0.6,59.60654860307223,
PM_list_2.xlsx,PM_images_list_2.xlsx,cue words2.xlsx,cue images2.xlsx,recog_task2.xlsx,recog_task_images2.xlsx,,stink,l,0,NoHit,2,,,,,,,,,,,,,,0,1,1,1,,,,,,,,,,,,,,,,,0,124,124,124,,,,,,,,,,,,,,,,,None,0,[],[],,,,,,,,,,,,99,A,2,2019_Jun_29_1442,PM,3.0.6,59.60654860307223,
PM_list_2.xlsx,PM_images_list_2.xlsx,cue words2.xlsx,cue images2.xlsx,recog_task2.xlsx,recog_task_images2.xlsx,,admired,l,0,NoHit,2,,,,,,,,,,,,,,0,1,1,1,,,,,,,,,,,,,,,,,0,125,125,125,,,,,,,,,,,,,,,,,None,0,[],[],,,,,,,,,,,,99,A,2,2019_Jun_29_1442,PM,3.0.6,59.60654860307223,
PM_list_2.xlsx,PM_images_list_2.xlsx,cue words2.xlsx,cue images2.xlsx,recog_task2.xlsx,recog_task_images2.xlsx,,agony,l,0,NoHit,2,,,,,,,,,,,,,,0,1,1,1,,,,,,,,,,,,,,,,,0,126,126,126,,,,,,,,,,,,,,,,,None,0,[],[],,,,,,,,,,,,99,A,2,2019_Jun_29_1442,PM,3.0.6,59.60654860307223,
PM_list_2.xlsx,PM_images_list_2.xlsx,cue words2.xlsx,cue images2.xlsx,recog_task2.xlsx,recog_task_images2.xlsx,,python,h,12,NeuH2,2,,,,,,,,,,,,,,0,1,1,1,,,,,,,,,,,,,,,,,0,127,127,127,,,,,,,,,,,,,,,,,None,0,[],0,,,,,,,,,,,,99,A,2,2019_Jun_29_1442,PM,3.0.6,59.60654860307223,
PM_list_2.xlsx,PM_images_list_2.xlsx,cue words2.xlsx,cue images2.xlsx,recog_task2.xlsx,recog_task_images2.xlsx,,agony,d,1,Hit,2,,,,,,,,,,,,,,0,1,1,1,,,,,,,,,,,,,,,,,0,128,128,128,,,,,,,,,,,,,,,,,None,0,[],[],,,,,,,,,,,,99,A,2,2019_Jun_29_1442,PM,3.0.6,59.60654860307223,
PM_list_2.xlsx,PM_images_list_2.xlsx,cue words2.xlsx,cue images2.xlsx,recog_task2.xlsx,recog_task_images2.xlsx,,outrage,l,0,NoHit,2,,,,,,,,,,,,,,0,1,1,1,,,,,,,,,,,,,,,,,0,129,129,129,,,,,,,,,,,,,,,,,None,0,[],[],,,,,,,,,,,,99,A,2,2019_Jun_29_1442,PM,3.0.6,59.60654860307223,
PM_list_2.xlsx,PM_images_list_2.xlsx,cue words2.xlsx,cue images2.xlsx,recog_task2.xlsx,recog_task_images2.xlsx,,engaged,l,0,NoHit,2,,,,,,,,,,,,,,0,1,1,1,,,,,,,,,,,,,,,,,0,130,130,130,,,,,,,,,,,,,,,,,None,0,[],[],,,,,,,,,,,,99,A,2,2019_Jun_29_1442,PM,3.0.6,59.60654860307223,
PM_list_2.xlsx,PM_images_list_2.xlsx,cue words2.xlsx,cue images2.xlsx,recog_task2.xlsx,recog_task_images2.xlsx,,cyclone,l,0,NoHit,2,,,,,,,,,,,,,,0,1,1,1,,,,,,,,,,,,,,,,,0,131,131,131,,,,,,,,,,,,,,,,,None,0,[],[],,,,,,,,,,,,99,A,2,2019_Jun_29_1442,PM,3.0.6,59.60654860307223,
PM_list_2.xlsx,PM_images_list_2.xlsx,cue words2.xlsx,cue images2.xlsx,recog_task2.xlsx,recog_task_images2.xlsx,,assault,,,None,,l,,,,,,,,,,,,,0,1,1,1,,,,,,,,,,,,,,,,,,,,,0,0,0,7,,,,,,,,,,,,,,,,,,l,1,2.015416866983287,,,,,,,,99,A,2,2019_Jun_29_1442,PM,3.0.6,59.60654860307223,
PM_list_2.xlsx,PM_images_list_2.xlsx,cue words2.xlsx,cue images2.xlsx,recog_task2.xlsx,recog_task_images2.xlsx,,table,,,NeuL2,,d,,,,,,,,,,,,,0,1,1,1,,,,,,,,,,,,,,,,,,,,,0,1,1,3,,,,,,,,,,,,,,,,,,l,0,0.11136496160179377,,,,,,,,99,A,2,2019_Jun_29_1442,PM,3.0.6,59.60654860307223,
PM_list_2.xlsx,PM_images_list_2.xlsx,cue words2.xlsx,cue images2.xlsx,recog_task2.xlsx,recog_task_images2.xlsx,,timid,,,None,,l,,,,,,,,,,,,,0,1,1,1,,,,,,,,,,,,,,,,,,,,,0,2,2,8,,,,,,,,,,,,,,,,,,l,1,0.11274622182827443,,,,,,,,99,A,2,2019_Jun_29_1442,PM,3.0.6,59.60654860307223,
PM_list_2.xlsx,PM_images_list_2.xlsx,cue words2.xlsx,cue images2.xlsx,recog_task2.xlsx,recog_task_images2.xlsx,,bird,,,None,,l,,,,,,,,,,,,,0,1,1,1,,,,,,,,,,,,,,,,,,,,,0,3,3,11,,,,,,,,,,,,,,,,,,l,1,0.14706155081512406,,,,,,,,99,A,2,2019_Jun_29_1442,PM,3.0.6,59.60654860307223,
PM_list_2.xlsx,PM_images_list_2.xlsx,cue words2.xlsx,cue images2.xlsx,recog_task2.xlsx,recog_task_images2.xlsx,,cyclone,,,None,,l,,,,,,,,,,,,,0,1,1,1,,,,,,,,,,,,,,,,,,,,,0,4,4,4,,,,,,,,,,,,,,,,,,l,1,0.1144159083487466,,,,,,,,99,A,2,2019_Jun_29_1442,PM,3.0.6,59.60654860307223,
PM_list_2.xlsx,PM_images_list_2.xlsx,cue words2.xlsx,cue images2.xlsx,recog_task2.xlsx,recog_task_images2.xlsx,,cozy,,,PosL2,,d,,,,,,,,,,,,,0,1,1,1,,,,,,,,,,,,,,,,,,,,,0,5,5,16,,,,,,,,,,,,,,,,,,l,0,0.11434195295441896,,,,,,,,99,A,2,2019_Jun_29_1442,PM,3.0.6,59.60654860307223,
PM_list_2.xlsx,PM_images_list_2.xlsx,cue words2.xlsx,cue images2.xlsx,recog_task2.xlsx,recog_task_images2.xlsx,,admired,,,None,,l,,,,,,,,,,,,,0,1,1,1,,,,,,,,,,,,,,,,,,,,,0,6,6,15,,,,,,,,,,,,,,,,,,l,1,0.08866234496235847,,,,,,,,99,A,2,2019_Jun_29_1442,PM,3.0.6,59.60654860307223,
PM_list_2.xlsx,PM_images_list_2.xlsx,cue words2.xlsx,cue images2.xlsx,recog_task2.xlsx,recog_task_images2.xlsx,,python,,,NeuH2,,d,,,,,,,,,,,,,0,1,1,1,,,,,,,,,,,,,,,,,,,,,0,7,7,6,,,,,,,,,,,,,,,,,,l,0,0.1131927989772521,,,,,,,,99,A,2,2019_Jun_29_1442,PM,3.0.6,59.60654860307223,
PM_list_2.xlsx,PM_images_list_2.xlsx,cue words2.xlsx,cue images2.xlsx,recog_task2.xlsx,recog_task_images2.xlsx,,bunny,,,None,,l,,,,,,,,,,,,,0,1,1,1,,,,,,,,,,,,,,,,,,,,,0,8,8,14,,,,,,,,,,,,,,,,,,l,1,0.11594052845612168,,,,,,,,99,A,2,2019_Jun_29_1442,PM,3.0.6,59.60654860307223,
PM_list_2.xlsx,PM_images_list_2.xlsx,cue words2.xlsx,cue images2.xlsx,recog_task2.xlsx,recog_task_images2.xlsx,,impair,,,NegL2,,d,,,,,,,,,,,,,0,1,1,1,,,,,,,,,,,,,,,,,,,,,0,9,9,0,,,,,,,,,,,,,,,,,,l,0,0.09337444498669356,,,,,,,,99,A,2,2019_Jun_29_1442,PM,3.0.6,59.60654860307223,
PM_list_2.xlsx,PM_images_list_2.xlsx,cue words2.xlsx,cue images2.xlsx,recog_task2.xlsx,recog_task_images2.xlsx,,overwhelmed,,,None,,l,,,,,,,,,,,,,0,1,1,1,,,,,,,,,,,,,,,,,,,,,0,10,10,2,,,,,,,,,,,,,,,,,,l,1,0.10132408700883389,,,,,,,,99,A,2,2019_Jun_29_1442,PM,3.0.6,59.60654860307223,
PM_list_2.xlsx,PM_images_list_2.xlsx,cue words2.xlsx,cue images2.xlsx,recog_task2.xlsx,recog_task_images2.xlsx,,dollar,,,PosH2,,d,,,,,,,,,,,,,0,1,1,1,,,,,,,,,,,,,,,,,,,,,0,11,11,9,,,,,,,,,,,,,,,,,,l,0,0.14713379967724904,,,,,,,,99,A,2,2019_Jun_29_1442,PM,3.0.6,59.60654860307223,
PM_list_2.xlsx,PM_images_list_2.xlsx,cue words2.xlsx,cue images2.xlsx,recog_task2.xlsx,recog_task_images2.xlsx,,sad,,,None,,l,,,,,,,,,,,,,0,1,1,1,,,,,,,,,,,,,,,,,,,,,0,12,12,13,,,,,,,,,,,,,,,,,,l,1,0.31969234527787194,,,,,,,,99,A,2,2019_Jun_29_1442,PM,3.0.6,59.60654860307223,
PM_list_2.xlsx,PM_images_list_2.xlsx,cue words2.xlsx,cue images2.xlsx,recog_task2.xlsx,recog_task_images2.xlsx,,abuse,,,None,,l,,,,,,,,,,,,,0,1,1,1,,,,,,,,,,,,,,,,,,,,,0,13,13,5,,,,,,,,,,,,,,,,,,l,1,0.22786698263371363,,,,,,,,99,A,2,2019_Jun_29_1442,PM,3.0.6,59.60654860307223,
PM_list_2.xlsx,PM_images_list_2.xlsx,cue words2.xlsx,cue images2.xlsx,recog_task2.xlsx,recog_task_images2.xlsx,,divorce,,,NegL2,,d,,,,,,,,,,,,,0,1,1,1,,,,,,,,,,,,,,,,,,,,,0,14,14,12,,,,,,,,,,,,,,,,,,l,0,0.1981317715253681,,,,,,,,99,A,2,2019_Jun_29_1442,PM,3.0.6,59.60654860307223,
PM_list_2.xlsx,PM_images_list_2.xlsx,cue words2.xlsx,cue images2.xlsx,recog_task2.xlsx,recog_task_images2.xlsx,,desire,,,None,,l,,,,,,,,,,,,,0,1,1,1,,,,,,,,,,,,,,,,,,,,,0,15,15,10,,,,,,,,,,,,,,,,,,l,1,0.11353982076980174,,,,,,,,99,A,2,2019_Jun_29_1442,PM,3.0.6,59.60654860307223,
PM_list_2.xlsx,PM_images_list_2.xlsx,cue words2.xlsx,cue images2.xlsx,recog_task2.xlsx,recog_task_images2.xlsx,,crash,,,None,,l,,,,,,,,,,,,,0,1,1,1,,,,,,,,,,,,,,,,,,,,,0,16,16,1,,,,,,,,,,,,,,,,,,l,1,0.13188703020568937,,,,,,,,99,A,2,2019_Jun_29_1442,PM,3.0.6,59.60654860307223,
,,,,,,,,,,,,,None,Pictures/7405.jpg,7,PosH1,,,,,,,,,,,,,,,,,,,,,,,,,,,,,,,,,,,,,,,,,0,0,0,0,0,0,0,13,,,,,,,,,None,None,None,None,,,,99,A,2,2019_Jun_29_1442,PM,3.0.6,59.60654860307223,
,,,,,,,,,,,,,table,None,3,NeuL2,,,,,,,,,,,,,,,,,,,,,,,,,,,,,,,,,,,,,,,,,0,0,0,0,0,1,1,7,,,,,,,,,None,None,None,None,,,,99,A,2,2019_Jun_29_1442,PM,3.0.6,59.60654860307223,
,,,,,,,,,,,,,python,None,6,NeuH2,,,,,,,,,,,,,,,,,,,,,,,,,,,,,,,,,,,,,,,,,0,0,0,0,0,2,2,9,,,,,,,,,50.0,4.896187027625274,60.0,2.1515068422886543,,,,99,A,2,2019_Jun_29_1442,PM,3.0.6,59.60654860307223,
,,,,,,,,,,,,,None,Pictures/2151.jpg,4,PosL1,,,,,,,,,,,,,,,,,,,,,,,,,,,,,,,,,,,,,,,,,0,0,0,0,0,3,3,14,,,,,,,,,None,None,None,None,,,,99,A,2,2019_Jun_29_1442,PM,3.0.6,59.60654860307223,
,,,,,,,,,,,,,dollar,None,5,PosH2,,,,,,,,,,,,,,,,,,,,,,,,,,,,,,,,,,,,,,,,,0,0,0,0,0,4,4,10,,,,,,,,,None,None,None,None,,,,99,A,2,2019_Jun_29_1442,PM,3.0.6,59.60654860307223,
,,,,,,,,,,,,,None,Pictures/2230.jpg,3,NeuL2,,,,,,,,,,,,,,,,,,,,,,,,,,,,,,,,,,,,,,,,,0,0,0,0,0,5,5,18,,,,,,,,,None,None,None,None,,,,99,A,2,2019_Jun_29_1442,PM,3.0.6,59.60654860307223,
,,,,,,,,,,,,,None,Pictures/9909.jpg,5,NegH1,,,,,,,,,,,,,,,,,,,,,,,,,,,,,,,,,,,,,,,,,0,0,0,0,0,6,6,17,,,,,,,,,None,None,None,None,,,,99,A,2,2019_Jun_29_1442,PM,3.0.6,59.60654860307223,
,,,,,,,,,,,,,None,Pictures/5594.jpg,4,PosL2,,,,,,,,,,,,,,,,,,,,,,,,,,,,,,,,,,,,,,,,,0,0,0,0,0,7,7,20,,,,,,,,,None,None,None,None,,,,99,A,2,2019_Jun_29_1442,PM,3.0.6,59.60654860307223,
,,,,,,,,,,,,,None,Pictures/2301.jpg,2,NegL1,,,,,,,,,,,,,,,,,,,,,,,,,,,,,,,,,,,,,,,,,0,0,0,0,0,8,8,16,,,,,,,,,None,None,None,None,,,,99,A,2,2019_Jun_29_1442,PM,3.0.6,59.60654860307223,
,,,,,,,,,,,,,None,Pictures/3550.jpg,5,NegH2,,,,,,,,,,,,,,,,,,,,,,,,,,,,,,,,,,,,,,,,,0,0,0,0,0,9,9,23,,,,,,,,,None,None,None,None,,,,99,A,2,2019_Jun_29_1442,PM,3.0.6,59.60654860307223,
,,,,,,,,,,,,,None,Pictures/7042.jpg,3,NeuL1,,,,,,,,,,,,,,,,,,,,,,,,,,,,,,,,,,,,,,,,,0,0,0,0,0,10,10,12,,,,,,,,,None,None,None,None,,,,99,A,2,2019_Jun_29_1442,PM,3.0.6,59.60654860307223,
,,,,,,,,,,,,,cozy,None,2,PosL2,,,,,,,,,,,,,,,,,,,,,,,,,,,,,,,,,,,,,,,,,0,0,0,0,0,11,11,6,,,,,,,,,None,None,None,None,,,,99,A,2,2019_Jun_29_1442,PM,3.0.6,59.60654860307223,
,,,,,,,,,,,,,impair,None,4,NegL2,,,,,,,,,,,,,,,,,,,,,,,,,,,,,,,,,,,,,,,,,0,0,0,0,0,12,12,11,,,,,,,,,None,None,None,None,,,,99,A,2,2019_Jun_29_1442,PM,3.0.6,59.60654860307223,
,,,,,,,,,,,,,startled,None,6,NeuH1,,,,,,,,,,,,,,,,,,,,,,,,,,,,,,,,,,,,,,,,,0,0,0,0,0,13,13,2,,,,,,,,,None,None,None,None,,,,99,A,2,2019_Jun_29_1442,PM,3.0.6,59.60654860307223,
,,,,,,,,,,,,,bunny,None,2,PosL1,,,,,,,,,,,,,,,,,,,,,,,,,,,,,,,,,,,,,,,,,0,0,0,0,0,14,14,0,,,,,,,,,None,None,None,None,,,,99,A,2,2019_Jun_29_1442,PM,3.0.6,59.60654860307223,
,,,,,,,,,,,,,coward,None,4,NegL1,,,,,,,,,,,,,,,,,,,,,,,,,,,,,,,,,,,,,,,,,0,0,0,0,0,15,15,5,,,,,,,,,None,None,None,None,,,,99,A,2,2019_Jun_29_1442,PM,3.0.6,59.60654860307223,
,,,,,,,,,,,,,None,Pictures/4625.jpg,7,PosH2,,,,,,,,,,,,,,,,,,,,,,,,,,,,,,,,,,,,,,,,,0,0,0,0,0,16,16,19,,,,,,,,,None,None,None,None,,,,99,A,2,2019_Jun_29_1442,PM,3.0.6,59.60654860307223,
,,,,,,,,,,,,,None,Pictures/2722.jpg,2,NegL2,,,,,,,,,,,,,,,,,,,,,,,,,,,,,,,,,,,,,,,,,0,0,0,0,0,17,17,22,,,,,,,,,None,None,None,None,,,,99,A,2,2019_Jun_29_1442,PM,3.0.6,59.60654860307223,
,,,,,,,,,,,,,birthday,None,5,PosH1,,,,,,,,,,,,,,,,,,,,,,,,,,,,,,,,,,,,,,,,,0,0,0,0,0,18,18,4,,,,,,,,,None,None,None,None,,,,99,A,2,2019_Jun_29_1442,PM,3.0.6,59.60654860307223,
,,,,,,,,,,,,,None,Pictures/6900.jpg,6,NeuH2,,,,,,,,,,,,,,,,,,,,,,,,,,,,,,,,,,,,,,,,,0,0,0,0,0,19,19,21,,,,,,,,,None,None,None,None,,,,99,A,2,2019_Jun_29_1442,PM,3.0.6,59.60654860307223,
,,,,,,,,,,,,,None,Pictures/8192.jpg,6,NeuH1,,,,,,,,,,,,,,,,,,,,,,,,,,,,,,,,,,,,,,,,,0,0,0,0,0,20,20,15,,,,,,,,,None,None,None,None,,,,99,A,2,2019_Jun_29_1442,PM,3.0.6,59.60654860307223,
,,,,,,,,,,,,,afraid,None,7,NegH1,,,,,,,,,,,,,,,,,,,,,,,,,,,,,,,,,,,,,,,,,0,0,0,0,0,21,21,1,,,,,,,,,None,None,None,None,,,,99,A,2,2019_Jun_29_1442,PM,3.0.6,59.60654860307223,
,,,,,,,,,,,,,divorce,None,7,NeuH2,,,,,,,,,,,,,,,,,,,,,,,,,,,,,,,,,,,,,,,,,0,0,0,0,0,22,22,8,,,,,,,,,None,None,None,None,,,,99,A,2,2019_Jun_29_1442,PM,3.0.6,59.60654860307223,
,,,,,,,,,,,,,statue,None,3,NeuL1,,,,,,,,,,,,,,,,,,,,,,,,,,,,,,,,,,,,,,,,,0,0,0,0,0,23,23,3,,,,,,,,,None,None,None,None,,,,99,A,2,2019_Jun_29_1442,PM,3.0.6,59.60654860307223,
,,,,,,,,,,,,,,,,,,,,,,,,,,,,,,,,,,,,,,,,,,,,,,,,,,,,,,,,,0,0,0,0,,,,,,,,,,,,,,,,,space,0,0.12612021173117682,99,A,2,2019_Jun_29_1442,PM,3.0.6,59.60654860307223,
