adjective,posneg,panasnum,images,key,corrAnsw,condFile,condFileIm,cueFile,cueFileIm,recogFile,recogFileIm,cues,CORRanswer,trialtype,valArous,block,image,ValArous,Panas_routine.thisRepN,Panas_routine.thisTrialN,Panas_routine.thisN,Panas_routine.thisIndex,trials.thisRepN,trials.thisTrialN,trials.thisN,trials.thisIndex,skip_routine.thisRepN,skip_routine.thisTrialN,skip_routine.thisN,skip_routine.thisIndex,illustration_loop.thisRepN,illustration_loop.thisTrialN,illustration_loop.thisN,illustration_loop.thisIndex,repeat_practice.thisRepN,repeat_practice.thisTrialN,repeat_practice.thisN,repeat_practice.thisIndex,trials_2.thisRepN,trials_2.thisTrialN,trials_2.thisN,trials_2.thisIndex,Group.thisRepN,Group.thisTrialN,Group.thisN,Group.thisIndex,loop_cues.thisRepN,loop_cues.thisTrialN,loop_cues.thisN,loop_cues.thisIndex,loop_cues2.thisRepN,loop_cues2.thisTrialN,loop_cues2.thisN,loop_cues2.thisIndex,instruction_wordfirst.thisRepN,instruction_wordfirst.thisTrialN,instruction_wordfirst.thisN,instruction_wordfirst.thisIndex,instruction_image_first.thisRepN,instruction_image_first.thisTrialN,instruction_image_first.thisN,instruction_image_first.thisIndex,PM_task_loop.thisRepN,PM_task_loop.thisTrialN,PM_task_loop.thisN,PM_task_loop.thisIndex,recog_task_loop.thisRepN,recog_task_loop.thisTrialN,recog_task_loop.thisN,recog_task_loop.thisIndex,trials_3.thisRepN,trials_3.thisTrialN,trials_3.thisN,trials_3.thisIndex,finalLoop.thisRepN,finalLoop.thisTrialN,finalLoop.thisN,finalLoop.thisIndex,rating.response,rating.rt,key_resp_6.keys,key_resp_6.rt,key_resp_6.corr,key_resp_6.rtFirst,key_resp_4.keys,key_resp_4.rt,key_resp_7.keys,key_resp_7.rt,key_resp_PM.keys,key_resp_PM.rt,key_resp_PM.rtFirst,key_resp_PM.corr,key_resp_PM.lenient,key_resp_18.keys,key_resp_18.corr,key_resp_18.rt,participant,Group,session,date,expName,psychopyVersion,frameRate,
interested,pos,1,,,,,,,,,,,,,,,,,0,0,0,0,0,0,0,0,,,,,,,,,,,,,,,,,,,,,,,,,,,,,,,,,,,,,,,,,,,,,,,,,,,,,5,13.199,,,,,,,,,,,,,,,,,123,A,1,2019_Jun_30_2030,PM,3.0.6,59.708482119627824,
distressed,neg,2,,,,,,,,,,,,,,,,,0,0,0,0,0,1,1,1,,,,,,,,,,,,,,,,,,,,,,,,,,,,,,,,,,,,,,,,,,,,,,,,,,,,,1,6.485,,,,,,,,,,,,,,,,,123,A,1,2019_Jun_30_2030,PM,3.0.6,59.708482119627824,
excited,pos,1,,,,,,,,,,,,,,,,,0,0,0,0,0,2,2,2,,,,,,,,,,,,,,,,,,,,,,,,,,,,,,,,,,,,,,,,,,,,,,,,,,,,,3,2.714,,,,,,,,,,,,,,,,,123,A,1,2019_Jun_30_2030,PM,3.0.6,59.708482119627824,
upset,neg,2,,,,,,,,,,,,,,,,,0,0,0,0,0,3,3,3,,,,,,,,,,,,,,,,,,,,,,,,,,,,,,,,,,,,,,,,,,,,,,,,,,,,,1,2.739,,,,,,,,,,,,,,,,,123,A,1,2019_Jun_30_2030,PM,3.0.6,59.708482119627824,
strong,pos,1,,,,,,,,,,,,,,,,,0,0,0,0,0,4,4,4,,,,,,,,,,,,,,,,,,,,,,,,,,,,,,,,,,,,,,,,,,,,,,,,,,,,,3,2.335,,,,,,,,,,,,,,,,,123,A,1,2019_Jun_30_2030,PM,3.0.6,59.708482119627824,
guilty,neg,2,,,,,,,,,,,,,,,,,0,0,0,0,0,5,5,5,,,,,,,,,,,,,,,,,,,,,,,,,,,,,,,,,,,,,,,,,,,,,,,,,,,,,1,2.166,,,,,,,,,,,,,,,,,123,A,1,2019_Jun_30_2030,PM,3.0.6,59.708482119627824,
scared,neg,2,,,,,,,,,,,,,,,,,0,0,0,0,0,6,6,6,,,,,,,,,,,,,,,,,,,,,,,,,,,,,,,,,,,,,,,,,,,,,,,,,,,,,1,2.305,,,,,,,,,,,,,,,,,123,A,1,2019_Jun_30_2030,PM,3.0.6,59.708482119627824,
hostile,neg,2,,,,,,,,,,,,,,,,,0,0,0,0,0,7,7,7,,,,,,,,,,,,,,,,,,,,,,,,,,,,,,,,,,,,,,,,,,,,,,,,,,,,,1,2.042,,,,,,,,,,,,,,,,,123,A,1,2019_Jun_30_2030,PM,3.0.6,59.708482119627824,
enthusiastic,pos,1,,,,,,,,,,,,,,,,,0,0,0,0,0,8,8,8,,,,,,,,,,,,,,,,,,,,,,,,,,,,,,,,,,,,,,,,,,,,,,,,,,,,,3,3.009,,,,,,,,,,,,,,,,,123,A,1,2019_Jun_30_2030,PM,3.0.6,59.708482119627824,
proud,pos,1,,,,,,,,,,,,,,,,,0,0,0,0,0,9,9,9,,,,,,,,,,,,,,,,,,,,,,,,,,,,,,,,,,,,,,,,,,,,,,,,,,,,,1,2.863,,,,,,,,,,,,,,,,,123,A,1,2019_Jun_30_2030,PM,3.0.6,59.708482119627824,
irritable,neg,2,,,,,,,,,,,,,,,,,0,0,0,0,0,10,10,10,,,,,,,,,,,,,,,,,,,,,,,,,,,,,,,,,,,,,,,,,,,,,,,,,,,,,1,2.775,,,,,,,,,,,,,,,,,123,A,1,2019_Jun_30_2030,PM,3.0.6,59.708482119627824,
alert,pos,1,,,,,,,,,,,,,,,,,0,0,0,0,0,11,11,11,,,,,,,,,,,,,,,,,,,,,,,,,,,,,,,,,,,,,,,,,,,,,,,,,,,,,1,40.588,,,,,,,,,,,,,,,,,123,A,1,2019_Jun_30_2030,PM,3.0.6,59.708482119627824,
ashamed,neg,2,,,,,,,,,,,,,,,,,0,0,0,0,0,12,12,12,,,,,,,,,,,,,,,,,,,,,,,,,,,,,,,,,,,,,,,,,,,,,,,,,,,,,1,2.701,,,,,,,,,,,,,,,,,123,A,1,2019_Jun_30_2030,PM,3.0.6,59.708482119627824,
inspired,pos,1,,,,,,,,,,,,,,,,,0,0,0,0,0,13,13,13,,,,,,,,,,,,,,,,,,,,,,,,,,,,,,,,,,,,,,,,,,,,,,,,,,,,,1,2.805,,,,,,,,,,,,,,,,,123,A,1,2019_Jun_30_2030,PM,3.0.6,59.708482119627824,
nervous,neg,2,,,,,,,,,,,,,,,,,0,0,0,0,0,14,14,14,,,,,,,,,,,,,,,,,,,,,,,,,,,,,,,,,,,,,,,,,,,,,,,,,,,,,1,1.87,,,,,,,,,,,,,,,,,123,A,1,2019_Jun_30_2030,PM,3.0.6,59.708482119627824,
determined,pos,1,,,,,,,,,,,,,,,,,0,0,0,0,0,15,15,15,,,,,,,,,,,,,,,,,,,,,,,,,,,,,,,,,,,,,,,,,,,,,,,,,,,,,2,3.599,,,,,,,,,,,,,,,,,123,A,1,2019_Jun_30_2030,PM,3.0.6,59.708482119627824,
attentive,neg,2,,,,,,,,,,,,,,,,,0,0,0,0,0,16,16,16,,,,,,,,,,,,,,,,,,,,,,,,,,,,,,,,,,,,,,,,,,,,,,,,,,,,,3,2.934,,,,,,,,,,,,,,,,,123,A,1,2019_Jun_30_2030,PM,3.0.6,59.708482119627824,
jittery,neg,2,,,,,,,,,,,,,,,,,0,0,0,0,0,17,17,17,,,,,,,,,,,,,,,,,,,,,,,,,,,,,,,,,,,,,,,,,,,,,,,,,,,,,1,2.699,,,,,,,,,,,,,,,,,123,A,1,2019_Jun_30_2030,PM,3.0.6,59.708482119627824,
active,pos,1,,,,,,,,,,,,,,,,,0,0,0,0,0,18,18,18,,,,,,,,,,,,,,,,,,,,,,,,,,,,,,,,,,,,,,,,,,,,,,,,,,,,,3,2.219,,,,,,,,,,,,,,,,,123,A,1,2019_Jun_30_2030,PM,3.0.6,59.708482119627824,
afraid,neg,2,,,,,,,,,,,,,,,,,0,0,0,0,0,19,19,19,,,,,,,,,,,,,,,,,,,,,,,,,,,,,,,,,,,,,,,,,,,,,,,,,,,,,1,2.576,,,,,,,,,,,,,,,,,123,A,1,2019_Jun_30_2030,PM,3.0.6,59.708482119627824,
,,,,,,,,,,,,,,,,,,,0,0,0,0,,,,,,,,,,,,,,,,,,,,,,,,,,,,,,,,,,,,,,,,,,,,,,,,,,,,,,,,,,,,,,,,,,,,,,,,,,,123,A,1,2019_Jun_30_2030,PM,3.0.6,59.708482119627824,
,,,Explanation1.jpg,space,,,,,,,,,,,,,,,,,,,,,,,0,0,0,0,0,0,0,0,,,,,,,,,,,,,,,,,,,,,,,,,,,,,,,,,,,,,,,,,,,,,,,,,,,,,,,,,,,,,,,123,A,1,2019_Jun_30_2030,PM,3.0.6,59.708482119627824,
,,,Explanation2.jpg,l,,,,,,,,,,,,,,,,,,,,,,,0,0,0,0,0,1,1,1,,,,,,,,,,,,,,,,,,,,,,,,,,,,,,,,,,,,,,,,,,,,,,,,,,,,,,,,,,,,,,,123,A,1,2019_Jun_30_2030,PM,3.0.6,59.708482119627824,
,,,Explanation3.jpg,l,,,,,,,,,,,,,,,,,,,,,,,0,0,0,0,0,2,2,2,,,,,,,,,,,,,,,,,,,,,,,,,,,,,,,,,,,,,,,,,,,,,,,,,,,,,,,,,,,,,,,123,A,1,2019_Jun_30_2030,PM,3.0.6,59.708482119627824,
,,,Explanation4.jpg,l,,,,,,,,,,,,,,,,,,,,,,,0,0,0,0,0,3,3,3,,,,,,,,,,,,,,,,,,,,,,,,,,,,,,,,,,,,,,,,,,,,,,,,,,,,,,,,,,,,,,,123,A,1,2019_Jun_30_2030,PM,3.0.6,59.708482119627824,
,,,Explanation5.jpg,d,,,,,,,,,,,,,,,,,,,,,,,0,0,0,0,0,4,4,4,,,,,,,,,,,,,,,,,,,,,,,,,,,,,,,,,,,,,,,,,,,,,,,,,,,,,,,,,,,,,,,123,A,1,2019_Jun_30_2030,PM,3.0.6,59.708482119627824,
,,,Explanation6.jpg,l,,,,,,,,,,,,,,,,,,,,,,,0,0,0,0,0,5,5,5,,,,,,,,,,,,,,,,,,,,,,,,,,,,,,,,,,,,,,,,,,,,,,,,,,,,,,,,,,,,,,,123,A,1,2019_Jun_30_2030,PM,3.0.6,59.708482119627824,
,,,Explanation7.jpg,space,,,,,,,,,,,,,,,,,,,,,,,0,0,0,0,0,6,6,6,,,,,,,,,,,,,,,,,,,,,,,,,,,,,,,,,,,,,,,,,,,,,,,,,,,,,,,,,,,,,,,123,A,1,2019_Jun_30_2030,PM,3.0.6,59.708482119627824,
,,,Pictures/1710.jpg,,l,,,,,,,,,,,,,,,,,,,,,,0,0,0,0,,,,,0,0,0,0,0,0,0,0,,,,,,,,,,,,,,,,,,,,,,,,,,,,,,,,,,,,,,,['l'],[0.536040051956661],1,0.536040051956661,,,,,,,,,,,,,123,A,1,2019_Jun_30_2030,PM,3.0.6,59.708482119627824,
,,,Pictures/2635.jpg,,l,,,,,,,,,,,,,,,,,,,,,,0,0,0,0,,,,,0,0,0,0,0,1,1,1,,,,,,,,,,,,,,,,,,,,,,,,,,,,,,,,,,,,,,,['l'],[0.5361200737534091],1,0.5361200737534091,,,,,,,,,,,,,123,A,1,2019_Jun_30_2030,PM,3.0.6,59.708482119627824,
,,,Pictures/1710.jpg,,d,,,,,,,,,,,,,,,,,,,,,,0,0,0,0,,,,,0,0,0,0,0,2,2,2,,,,,,,,,,,,,,,,,,,,,,,,,,,,,,,,,,,,,,,['d'],[1.0215935612795874],1,1.0215935612795874,,,,,,,,,,,,,123,A,1,2019_Jun_30_2030,PM,3.0.6,59.708482119627824,
,,,Pictures/5890.jpg,,l,,,,,,,,,,,,,,,,,,,,,,0,0,0,0,,,,,0,0,0,0,0,3,3,3,,,,,,,,,,,,,,,,,,,,,,,,,,,,,,,,,,,,,,,['l'],[0.6699687606887892],1,0.6699687606887892,,,,,,,,,,,,,123,A,1,2019_Jun_30_2030,PM,3.0.6,59.708482119627824,
,,,Pictures/1675.jpg,,l,,,,,,,,,,,,,,,,,,,,,,0,0,0,0,,,,,0,0,0,0,0,4,4,4,,,,,,,,,,,,,,,,,,,,,,,,,,,,,,,,,,,,,,,['l'],[0.7533329571597278],1,0.7533329571597278,,,,,,,,,,,,,123,A,1,2019_Jun_30_2030,PM,3.0.6,59.708482119627824,
,,,Pictures/2635.jpg,,l,,,,,,,,,,,,,,,,,,,,,,0,0,0,0,,,,,0,0,0,0,0,5,5,5,,,,,,,,,,,,,,,,,,,,,,,,,,,,,,,,,,,,,,,['d'],[0.7372834667330608],0,0.7372834667330608,,,,,,,,,,,,,123,A,1,2019_Jun_30_2030,PM,3.0.6,59.708482119627824,
,,,Pictures/1675.jpg,,d,,,,,,,,,,,,,,,,,,,,,,0,0,0,0,,,,,0,0,0,0,0,6,6,6,,,,,,,,,,,,,,,,,,,,,,,,,,,,,,,,,,,,,,,['d'],[0.8035917454399168],1,0.8035917454399168,,,,,,,,,,,,,123,A,1,2019_Jun_30_2030,PM,3.0.6,59.708482119627824,
,,,Pictures/7009.jpg,,l,,,,,,,,,,,,,,,,,,,,,,0,0,0,0,,,,,0,0,0,0,0,7,7,7,,,,,,,,,,,,,,,,,,,,,,,,,,,,,,,,,,,,,,,['l'],[0.40211236907634884],1,0.40211236907634884,,,,,,,,,,,,,123,A,1,2019_Jun_30_2030,PM,3.0.6,59.708482119627824,
,,,Pictures/7021.jpg,,l,,,,,,,,,,,,,,,,,,,,,,0,0,0,0,,,,,0,0,0,0,0,8,8,8,,,,,,,,,,,,,,,,,,,,,,,,,,,,,,,,,,,,,,,['l'],[0.45242450514342636],1,0.45242450514342636,,,,,,,,,,,,,123,A,1,2019_Jun_30_2030,PM,3.0.6,59.708482119627824,
,,,Pictures/7009.jpg,,d,,,,,,,,,,,,,,,,,,,,,,0,0,0,0,,,,,0,0,0,0,0,9,9,9,,,,,,,,,,,,,,,,,,,,,,,,,,,,,,,,,,,,,,,['d'],[0.7533668125979602],1,0.7533668125979602,,,,,,,,,,,,,123,A,1,2019_Jun_30_2030,PM,3.0.6,59.708482119627824,
,,,Pictures/5890.jpg,,l,,,,,,,,,,,,,,,,,,,,,,0,0,0,0,,,,,0,0,0,0,0,10,10,10,,,,,,,,,,,,,,,,,,,,,,,,,,,,,,,,,,,,,,,['l'],[0.6857771599898115],1,0.6857771599898115,,,,,,,,,,,,,123,A,1,2019_Jun_30_2030,PM,3.0.6,59.708482119627824,
,,,,,,,,,,,,,,,,,,,,,,,,,,,0,0,0,0,,,,,0,0,0,0,,,,,,,,,,,,,,,,,,,,,,,,,,,,,,,,,,,,,,,,,,,,,,,n,6.104568934184499,,,,,,,,,,,123,A,1,2019_Jun_30_2030,PM,3.0.6,59.708482119627824,
,,,,,,,,,,,,,,,,,,,,,,,,,,,0,0,0,0,,,,,,,,,,,,,,,,,,,,,,,,,,,,,,,,,,,,,,,,,,,,,,,,,,,,,,,,,space,1.7567369592143223,,,,,,,,,123,A,1,2019_Jun_30_2030,PM,3.0.6,59.708482119627824,
,,,,,,PM_list_1.xlsx,PM_images_list_1.xlsx,cue words.xlsx,cue images.xlsx,recog_task.xlsx,recog_task_images1.xlsx,Pictures/2301.jpg,,,,,,,,,,,,,,,,,,,,,,,,,,,,,,,0,0,0,0,0,0,0,4,,,,,,,,,,,,,,,,,,,,,,,,,,,,,,,,,,,,,,,,,,,,,,,123,A,1,2019_Jun_30_2030,PM,3.0.6,59.708482119627824,
,,,,,,PM_list_1.xlsx,PM_images_list_1.xlsx,cue words.xlsx,cue images.xlsx,recog_task.xlsx,recog_task_images1.xlsx,Pictures/2151.jpg,,,,,,,,,,,,,,,,,,,,,,,,,,,,,,,0,0,0,0,0,1,1,2,,,,,,,,,,,,,,,,,,,,,,,,,,,,,,,,,,,,,,,,,,,,,,,123,A,1,2019_Jun_30_2030,PM,3.0.6,59.708482119627824,
,,,,,,PM_list_1.xlsx,PM_images_list_1.xlsx,cue words.xlsx,cue images.xlsx,recog_task.xlsx,recog_task_images1.xlsx,Pictures/7042.jpg,,,,,,,,,,,,,,,,,,,,,,,,,,,,,,,0,0,0,0,0,2,2,0,,,,,,,,,,,,,,,,,,,,,,,,,,,,,,,,,,,,,,,,,,,,,,,123,A,1,2019_Jun_30_2030,PM,3.0.6,59.708482119627824,
,,,,,,PM_list_1.xlsx,PM_images_list_1.xlsx,cue words.xlsx,cue images.xlsx,recog_task.xlsx,recog_task_images1.xlsx,Pictures/9909.jpg,,,,,,,,,,,,,,,,,,,,,,,,,,,,,,,0,0,0,0,0,3,3,5,,,,,,,,,,,,,,,,,,,,,,,,,,,,,,,,,,,,,,,,,,,,,,,123,A,1,2019_Jun_30_2030,PM,3.0.6,59.708482119627824,
,,,,,,PM_list_1.xlsx,PM_images_list_1.xlsx,cue words.xlsx,cue images.xlsx,recog_task.xlsx,recog_task_images1.xlsx,Pictures/8192.jpg,,,,,,,,,,,,,,,,,,,,,,,,,,,,,,,0,0,0,0,0,4,4,3,,,,,,,,,,,,,,,,,,,,,,,,,,,,,,,,,,,,,,,,,,,,,,,123,A,1,2019_Jun_30_2030,PM,3.0.6,59.708482119627824,
,,,,,,PM_list_1.xlsx,PM_images_list_1.xlsx,cue words.xlsx,cue images.xlsx,recog_task.xlsx,recog_task_images1.xlsx,Pictures/7405.jpg,,,,,,,,,,,,,,,,,,,,,,,,,,,,,,,0,0,0,0,0,5,5,1,,,,,,,,,,,,,,,,,,,,,,,,,,,,,,,,,,,,,,,,,,,,,,,123,A,1,2019_Jun_30_2030,PM,3.0.6,59.708482119627824,
,,,,,,PM_list_1.xlsx,PM_images_list_1.xlsx,cue words.xlsx,cue images.xlsx,recog_task.xlsx,recog_task_images1.xlsx,Pictures/7042.jpg,,,,,,,,,,,,,,,,,,,,,,,,,,,,,,,0,0,0,0,,,,,0,0,0,0,,,,,,,,,,,,,,,,,,,,,,,,,,,,,,,,,,,,,,,,,,,123,A,1,2019_Jun_30_2030,PM,3.0.6,59.708482119627824,
,,,,,,PM_list_1.xlsx,PM_images_list_1.xlsx,cue words.xlsx,cue images.xlsx,recog_task.xlsx,recog_task_images1.xlsx,Pictures/8192.jpg,,,,,,,,,,,,,,,,,,,,,,,,,,,,,,,0,0,0,0,,,,,0,1,1,3,,,,,,,,,,,,,,,,,,,,,,,,,,,,,,,,,,,,,,,,,,,123,A,1,2019_Jun_30_2030,PM,3.0.6,59.708482119627824,
,,,,,,PM_list_1.xlsx,PM_images_list_1.xlsx,cue words.xlsx,cue images.xlsx,recog_task.xlsx,recog_task_images1.xlsx,Pictures/7405.jpg,,,,,,,,,,,,,,,,,,,,,,,,,,,,,,,0,0,0,0,,,,,0,2,2,1,,,,,,,,,,,,,,,,,,,,,,,,,,,,,,,,,,,,,,,,,,,123,A,1,2019_Jun_30_2030,PM,3.0.6,59.708482119627824,
,,,,,,PM_list_1.xlsx,PM_images_list_1.xlsx,cue words.xlsx,cue images.xlsx,recog_task.xlsx,recog_task_images1.xlsx,Pictures/2301.jpg,,,,,,,,,,,,,,,,,,,,,,,,,,,,,,,0,0,0,0,,,,,0,3,3,4,,,,,,,,,,,,,,,,,,,,,,,,,,,,,,,,,,,,,,,,,,,123,A,1,2019_Jun_30_2030,PM,3.0.6,59.708482119627824,
,,,,,,PM_list_1.xlsx,PM_images_list_1.xlsx,cue words.xlsx,cue images.xlsx,recog_task.xlsx,recog_task_images1.xlsx,Pictures/2151.jpg,,,,,,,,,,,,,,,,,,,,,,,,,,,,,,,0,0,0,0,,,,,0,4,4,2,,,,,,,,,,,,,,,,,,,,,,,,,,,,,,,,,,,,,,,,,,,123,A,1,2019_Jun_30_2030,PM,3.0.6,59.708482119627824,
,,,,,,PM_list_1.xlsx,PM_images_list_1.xlsx,cue words.xlsx,cue images.xlsx,recog_task.xlsx,recog_task_images1.xlsx,Pictures/9909.jpg,,,,,,,,,,,,,,,,,,,,,,,,,,,,,,,0,0,0,0,,,,,0,5,5,5,,,,,,,,,,,,,,,,,,,,,,,,,,,,,,,,,,,,,,,,,,,123,A,1,2019_Jun_30_2030,PM,3.0.6,59.708482119627824,
,,,,,,PM_list_1.xlsx,PM_images_list_1.xlsx,cue words.xlsx,cue images.xlsx,recog_task.xlsx,recog_task_images1.xlsx,,,,,,,,,,,,,,,,,,,,,,,,,,,,,,,,0,0,0,0,,,,,,,,,0,0,0,0,,,,,,,,,,,,,,,,,,,,,,,,,,,,,,,,,,,,,,,123,A,1,2019_Jun_30_2030,PM,3.0.6,59.708482119627824,
,,,Pictures/1101.jpg,,,PM_list_1.xlsx,PM_images_list_1.xlsx,cue words.xlsx,cue images.xlsx,recog_task.xlsx,recog_task_images1.xlsx,Pictures/7042.jpg,l,0,NoHit,1,,,,,,,,,,,,,,,,,,,,,,,,,,,0,0,0,0,,,,,,,,,,,,,,,,,0,0,0,0,,,,,,,,,,,,,,,,,,,,,,,['l'],[0.3519110322231427],0.3519110322231427,1,[],,,,123,A,1,2019_Jun_30_2030,PM,3.0.6,59.708482119627824,
,,,Pictures/7054.jpg,,,PM_list_1.xlsx,PM_images_list_1.xlsx,cue words.xlsx,cue images.xlsx,recog_task.xlsx,recog_task_images1.xlsx,Pictures/7405.jpg,l,0,NoHit,1,,,,,,,,,,,,,,,,,,,,,,,,,,,0,0,0,0,,,,,,,,,,,,,,,,,0,1,1,1,,,,,,,,,,,,,,,,,,,,,,,['l'],[0.5362852468388155],0.5362852468388155,1,[],,,,123,A,1,2019_Jun_30_2030,PM,3.0.6,59.708482119627824,
,,,Pictures/1022.jpg,,,PM_list_1.xlsx,PM_images_list_1.xlsx,cue words.xlsx,cue images.xlsx,recog_task.xlsx,recog_task_images1.xlsx,Pictures/2151.jpg,l,0,NoHit,1,,,,,,,,,,,,,,,,,,,,,,,,,,,0,0,0,0,,,,,,,,,,,,,,,,,0,2,2,2,,,,,,,,,,,,,,,,,,,,,,,['l'],[0.6029033531667665],0.6029033531667665,1,[],,,,123,A,1,2019_Jun_30_2030,PM,3.0.6,59.708482119627824,
,,,Pictures/7054.jpg,,,PM_list_1.xlsx,PM_images_list_1.xlsx,cue words.xlsx,cue images.xlsx,recog_task.xlsx,recog_task_images1.xlsx,Pictures/8192.jpg,d,1,Hit,1,,,,,,,,,,,,,,,,,,,,,,,,,,,0,0,0,0,,,,,,,,,,,,,,,,,0,3,3,3,,,,,,,,,,,,,,,,,,,,,,,['d'],[0.5862136888317764],0.5862136888317764,1,[],,,,123,A,1,2019_Jun_30_2030,PM,3.0.6,59.708482119627824,
,,,Pictures/1750.jpg,,,PM_list_1.xlsx,PM_images_list_1.xlsx,cue words.xlsx,cue images.xlsx,recog_task.xlsx,recog_task_images1.xlsx,Pictures/2301.jpg,l,0,NoHit,1,,,,,,,,,,,,,,,,,,,,,,,,,,,0,0,0,0,,,,,,,,,,,,,,,,,0,4,4,4,,,,,,,,,,,,,,,,,,,,,,,['l'],[0.4190236320719123],0.4190236320719123,1,[],,,,123,A,1,2019_Jun_30_2030,PM,3.0.6,59.708482119627824,
,,,Pictures/2720.jpg,,,PM_list_1.xlsx,PM_images_list_1.xlsx,cue words.xlsx,cue images.xlsx,recog_task.xlsx,recog_task_images1.xlsx,Pictures/9909.jpg,l,0,NoHit,1,,,,,,,,,,,,,,,,,,,,,,,,,,,0,0,0,0,,,,,,,,,,,,,,,,,0,5,5,5,,,,,,,,,,,,,,,,,,,,,,,['l'],[0.51930422114674],0.51930422114674,1,[],,,,123,A,1,2019_Jun_30_2030,PM,3.0.6,59.708482119627824,
,,,Pictures/1750.jpg,,,PM_list_1.xlsx,PM_images_list_1.xlsx,cue words.xlsx,cue images.xlsx,recog_task.xlsx,recog_task_images1.xlsx,None,d,1,Hit,1,,,,,,,,,,,,,,,,,,,,,,,,,,,0,0,0,0,,,,,,,,,,,,,,,,,0,6,6,6,,,,,,,,,,,,,,,,,,,,,,,['d'],[0.569578398251906],0.569578398251906,1,[],,,,123,A,1,2019_Jun_30_2030,PM,3.0.6,59.708482119627824,
,,,Pictures/4622.jpg,,,PM_list_1.xlsx,PM_images_list_1.xlsx,cue words.xlsx,cue images.xlsx,recog_task.xlsx,recog_task_images1.xlsx,None,l,0,NoHit,1,,,,,,,,,,,,,,,,,,,,,,,,,,,0,0,0,0,,,,,,,,,,,,,,,,,0,7,7,7,,,,,,,,,,,,,,,,,,,,,,,['l'],[0.38618496316485107],0.38618496316485107,1,[],,,,123,A,1,2019_Jun_30_2030,PM,3.0.6,59.708482119627824,
,,,Pictures/8065.jpg,,,PM_list_1.xlsx,PM_images_list_1.xlsx,cue words.xlsx,cue images.xlsx,recog_task.xlsx,recog_task_images1.xlsx,None,l,0,NoHit,1,,,,,,,,,,,,,,,,,,,,,,,,,,,0,0,0,0,,,,,,,,,,,,,,,,,0,8,8,8,,,,,,,,,,,,,,,,,,,,,,,['l'],[0.385298568289727],0.385298568289727,1,[],,,,123,A,1,2019_Jun_30_2030,PM,3.0.6,59.708482119627824,
,,,Pictures/4622.jpg,,,PM_list_1.xlsx,PM_images_list_1.xlsx,cue words.xlsx,cue images.xlsx,recog_task.xlsx,recog_task_images1.xlsx,None,d,1,Hit,1,,,,,,,,,,,,,,,,,,,,,,,,,,,0,0,0,0,,,,,,,,,,,,,,,,,0,9,9,9,,,,,,,,,,,,,,,,,,,,,,,['d'],[0.5858566687675193],0.5858566687675193,1,[],,,,123,A,1,2019_Jun_30_2030,PM,3.0.6,59.708482119627824,
,,,Pictures/7042.jpg,,,PM_list_1.xlsx,PM_images_list_1.xlsx,cue words.xlsx,cue images.xlsx,recog_task.xlsx,recog_task_images1.xlsx,None,h,3,NeuL1,1,,,,,,,,,,,,,,,,,,,,,,,,,,,0,0,0,0,,,,,,,,,,,,,,,,,0,10,10,10,,,,,,,,,,,,,,,,,,,,,,,"['l', 'h']","[0.3526835498632863, 1.0885430398629978]",0.3526835498632863,0,1,,,,123,A,1,2019_Jun_30_2030,PM,3.0.6,59.708482119627824,
,,,Pictures/2520.jpg,,,PM_list_1.xlsx,PM_images_list_1.xlsx,cue words.xlsx,cue images.xlsx,recog_task.xlsx,recog_task_images1.xlsx,None,l,0,NoHit,1,,,,,,,,,,,,,,,,,,,,,,,,,,,0,0,0,0,,,,,,,,,,,,,,,,,0,11,11,11,,,,,,,,,,,,,,,,,,,,,,,['l'],[0.4025073481025174],0.4025073481025174,1,[],,,,123,A,1,2019_Jun_30_2030,PM,3.0.6,59.708482119627824,
,,,Pictures/4599.jpg,,,PM_list_1.xlsx,PM_images_list_1.xlsx,cue words.xlsx,cue images.xlsx,recog_task.xlsx,recog_task_images1.xlsx,None,l,0,NoHit,1,,,,,,,,,,,,,,,,,,,,,,,,,,,0,0,0,0,,,,,,,,,,,,,,,,,0,12,12,12,,,,,,,,,,,,,,,,,,,,,,,['l'],[0.36842013464774936],0.36842013464774936,1,[],,,,123,A,1,2019_Jun_30_2030,PM,3.0.6,59.708482119627824,
,,,Pictures/6910.jpg,,,PM_list_1.xlsx,PM_images_list_1.xlsx,cue words.xlsx,cue images.xlsx,recog_task.xlsx,recog_task_images1.xlsx,None,l,0,NoHit,1,,,,,,,,,,,,,,,,,,,,,,,,,,,0,0,0,0,,,,,,,,,,,,,,,,,0,13,13,13,,,,,,,,,,,,,,,,,,,,,,,['l'],[0.3682364949490875],0.3682364949490875,1,[],,,,123,A,1,2019_Jun_30_2030,PM,3.0.6,59.708482119627824,
,,,Pictures/4599.jpg,,,PM_list_1.xlsx,PM_images_list_1.xlsx,cue words.xlsx,cue images.xlsx,recog_task.xlsx,recog_task_images1.xlsx,None,d,1,Hit,1,,,,,,,,,,,,,,,,,,,,,,,,,,,0,0,0,0,,,,,,,,,,,,,,,,,0,14,14,14,,,,,,,,,,,,,,,,,,,,,,,['d'],[0.6364601661916822],0.6364601661916822,1,[],,,,123,A,1,2019_Jun_30_2030,PM,3.0.6,59.708482119627824,
,,,Pictures/9041.jpg,,,PM_list_1.xlsx,PM_images_list_1.xlsx,cue words.xlsx,cue images.xlsx,recog_task.xlsx,recog_task_images1.xlsx,None,l,0,NoHit,1,,,,,,,,,,,,,,,,,,,,,,,,,,,0,0,0,0,,,,,,,,,,,,,,,,,0,15,15,15,,,,,,,,,,,,,,,,,,,,,,,['l'],[0.3689782351721078],0.3689782351721078,1,[],,,,123,A,1,2019_Jun_30_2030,PM,3.0.6,59.708482119627824,
,,,Pictures/2750.jpg,,,PM_list_1.xlsx,PM_images_list_1.xlsx,cue words.xlsx,cue images.xlsx,recog_task.xlsx,recog_task_images1.xlsx,None,l,0,NoHit,1,,,,,,,,,,,,,,,,,,,,,,,,,,,0,0,0,0,,,,,,,,,,,,,,,,,0,16,16,16,,,,,,,,,,,,,,,,,,,,,,,['l'],[0.38524214271456003],0.38524214271456003,1,[],,,,123,A,1,2019_Jun_30_2030,PM,3.0.6,59.708482119627824,
,,,Pictures/9041.jpg,,,PM_list_1.xlsx,PM_images_list_1.xlsx,cue words.xlsx,cue images.xlsx,recog_task.xlsx,recog_task_images1.xlsx,None,d,1,Hit,1,,,,,,,,,,,,,,,,,,,,,,,,,,,0,0,0,0,,,,,,,,,,,,,,,,,0,17,17,17,,,,,,,,,,,,,,,,,,,,,,,['d'],[0.552631227998063],0.552631227998063,1,[],,,,123,A,1,2019_Jun_30_2030,PM,3.0.6,59.708482119627824,
,,,Pictures/9342.jpg,,,PM_list_1.xlsx,PM_images_list_1.xlsx,cue words.xlsx,cue images.xlsx,recog_task.xlsx,recog_task_images1.xlsx,None,l,0,NoHit,1,,,,,,,,,,,,,,,,,,,,,,,,,,,0,0,0,0,,,,,,,,,,,,,,,,,0,18,18,18,,,,,,,,,,,,,,,,,,,,,,,['l'],[0.5860680082114413],0.5860680082114413,1,[],,,,123,A,1,2019_Jun_30_2030,PM,3.0.6,59.708482119627824,
,,,Pictures/6021.jpg,,,PM_list_1.xlsx,PM_images_list_1.xlsx,cue words.xlsx,cue images.xlsx,recog_task.xlsx,recog_task_images1.xlsx,None,l,0,NoHit,1,,,,,,,,,,,,,,,,,,,,,,,,,,,0,0,0,0,,,,,,,,,,,,,,,,,0,19,19,19,,,,,,,,,,,,,,,,,,,,,,,['l'],[0.385565307457],0.385565307457,1,[],,,,123,A,1,2019_Jun_30_2030,PM,3.0.6,59.708482119627824,
,,,Pictures/2331.jpg,,,PM_list_1.xlsx,PM_images_list_1.xlsx,cue words.xlsx,cue images.xlsx,recog_task.xlsx,recog_task_images1.xlsx,None,l,0,NoHit,1,,,,,,,,,,,,,,,,,,,,,,,,,,,0,0,0,0,,,,,,,,,,,,,,,,,0,20,20,20,,,,,,,,,,,,,,,,,,,,,,,['l'],[0.4559608509298414],0.4559608509298414,1,[],,,,123,A,1,2019_Jun_30_2030,PM,3.0.6,59.708482119627824,
,,,Pictures/7405.jpg,,,PM_list_1.xlsx,PM_images_list_1.xlsx,cue words.xlsx,cue images.xlsx,recog_task.xlsx,recog_task_images1.xlsx,None,h,7,PosH1,1,,,,,,,,,,,,,,,,,,,,,,,,,,,0,0,0,0,,,,,,,,,,,,,,,,,0,21,21,21,,,,,,,,,,,,,,,,,,,,,,,['h'],[0.9876120176631957],0.9876120176631957,1,1,,,,123,A,1,2019_Jun_30_2030,PM,3.0.6,59.708482119627824,
,,,Pictures/2331.jpg,,,PM_list_1.xlsx,PM_images_list_1.xlsx,cue words.xlsx,cue images.xlsx,recog_task.xlsx,recog_task_images1.xlsx,None,d,1,Hit,1,,,,,,,,,,,,,,,,,,,,,,,,,,,0,0,0,0,,,,,,,,,,,,,,,,,0,22,22,22,,,,,,,,,,,,,,,,,,,,,,,['d'],[0.5861213559983298],0.5861213559983298,1,[],,,,123,A,1,2019_Jun_30_2030,PM,3.0.6,59.708482119627824,
,,,Pictures/2309.jpg,,,PM_list_1.xlsx,PM_images_list_1.xlsx,cue words.xlsx,cue images.xlsx,recog_task.xlsx,recog_task_images1.xlsx,None,l,0,NoHit,1,,,,,,,,,,,,,,,,,,,,,,,,,,,0,0,0,0,,,,,,,,,,,,,,,,,0,23,23,23,,,,,,,,,,,,,,,,,,,,,,,['l'],[0.48616290581412613],0.48616290581412613,1,[],,,,123,A,1,2019_Jun_30_2030,PM,3.0.6,59.708482119627824,
,,,Pictures/1460.jpg,,,PM_list_1.xlsx,PM_images_list_1.xlsx,cue words.xlsx,cue images.xlsx,recog_task.xlsx,recog_task_images1.xlsx,None,l,0,NoHit,1,,,,,,,,,,,,,,,,,,,,,,,,,,,0,0,0,0,,,,,,,,,,,,,,,,,0,24,24,24,,,,,,,,,,,,,,,,,,,,,,,['l'],[0.35238090355414897],0.35238090355414897,1,[],,,,123,A,1,2019_Jun_30_2030,PM,3.0.6,59.708482119627824,
,,,Pictures/3103.jpg,,,PM_list_1.xlsx,PM_images_list_1.xlsx,cue words.xlsx,cue images.xlsx,recog_task.xlsx,recog_task_images1.xlsx,None,l,0,NoHit,1,,,,,,,,,,,,,,,,,,,,,,,,,,,0,0,0,0,,,,,,,,,,,,,,,,,0,25,25,25,,,,,,,,,,,,,,,,,,,,,,,['l'],[0.43626421550288796],0.43626421550288796,1,[],,,,123,A,1,2019_Jun_30_2030,PM,3.0.6,59.708482119627824,
,,,Pictures/1460.jpg,,,PM_list_1.xlsx,PM_images_list_1.xlsx,cue words.xlsx,cue images.xlsx,recog_task.xlsx,recog_task_images1.xlsx,None,d,1,Hit,1,,,,,,,,,,,,,,,,,,,,,,,,,,,0,0,0,0,,,,,,,,,,,,,,,,,0,26,26,26,,,,,,,,,,,,,,,,,,,,,,,['d'],[0.6704960835631937],0.6704960835631937,1,[],,,,123,A,1,2019_Jun_30_2030,PM,3.0.6,59.708482119627824,
,,,Pictures/8090.jpg,,,PM_list_1.xlsx,PM_images_list_1.xlsx,cue words.xlsx,cue images.xlsx,recog_task.xlsx,recog_task_images1.xlsx,None,l,0,NoHit,1,,,,,,,,,,,,,,,,,,,,,,,,,,,0,0,0,0,,,,,,,,,,,,,,,,,0,27,27,27,,,,,,,,,,,,,,,,,,,,,,,['l'],[0.4691367397317663],0.4691367397317663,1,[],,,,123,A,1,2019_Jun_30_2030,PM,3.0.6,59.708482119627824,
,,,Pictures/3302.jpg,,,PM_list_1.xlsx,PM_images_list_1.xlsx,cue words.xlsx,cue images.xlsx,recog_task.xlsx,recog_task_images1.xlsx,None,l,0,NoHit,1,,,,,,,,,,,,,,,,,,,,,,,,,,,0,0,0,0,,,,,,,,,,,,,,,,,0,28,28,28,,,,,,,,,,,,,,,,,,,,,,,['l'],[0.40251965925563127],0.40251965925563127,1,[],,,,123,A,1,2019_Jun_30_2030,PM,3.0.6,59.708482119627824,
,,,Pictures/2650.jpg,,,PM_list_1.xlsx,PM_images_list_1.xlsx,cue words.xlsx,cue images.xlsx,recog_task.xlsx,recog_task_images1.xlsx,None,l,0,NoHit,1,,,,,,,,,,,,,,,,,,,,,,,,,,,0,0,0,0,,,,,,,,,,,,,,,,,0,29,29,29,,,,,,,,,,,,,,,,,,,,,,,['l'],[0.4023442268371582],0.4023442268371582,1,[],,,,123,A,1,2019_Jun_30_2030,PM,3.0.6,59.708482119627824,
,,,Pictures/3302.jpg,,,PM_list_1.xlsx,PM_images_list_1.xlsx,cue words.xlsx,cue images.xlsx,recog_task.xlsx,recog_task_images1.xlsx,None,d,1,Hit,1,,,,,,,,,,,,,,,,,,,,,,,,,,,0,0,0,0,,,,,,,,,,,,,,,,,0,30,30,30,,,,,,,,,,,,,,,,,,,,,,,['d'],[0.5195483900606632],0.5195483900606632,1,[],,,,123,A,1,2019_Jun_30_2030,PM,3.0.6,59.708482119627824,
,,,Pictures/2151.jpg,,,PM_list_1.xlsx,PM_images_list_1.xlsx,cue words.xlsx,cue images.xlsx,recog_task.xlsx,recog_task_images1.xlsx,None,h,4,PosL1,1,,,,,,,,,,,,,,,,,,,,,,,,,,,0,0,0,0,,,,,,,,,,,,,,,,,0,31,31,31,,,,,,,,,,,,,,,,,,,,,,,['h'],[0.8881429311586544],0.8881429311586544,1,1,,,,123,A,1,2019_Jun_30_2030,PM,3.0.6,59.708482119627824,
,,,Pictures/2222.jpg,,,PM_list_1.xlsx,PM_images_list_1.xlsx,cue words.xlsx,cue images.xlsx,recog_task.xlsx,recog_task_images1.xlsx,None,l,0,NoHit,1,,,,,,,,,,,,,,,,,,,,,,,,,,,0,0,0,0,,,,,,,,,,,,,,,,,0,32,32,32,,,,,,,,,,,,,,,,,,,,,,,['l'],[0.3520803089486435],0.3520803089486435,1,[],,,,123,A,1,2019_Jun_30_2030,PM,3.0.6,59.708482119627824,
,,,Pictures/8185.jpg,,,PM_list_1.xlsx,PM_images_list_1.xlsx,cue words.xlsx,cue images.xlsx,recog_task.xlsx,recog_task_images1.xlsx,None,l,0,NoHit,1,,,,,,,,,,,,,,,,,,,,,,,,,,,0,0,0,0,,,,,,,,,,,,,,,,,0,33,33,33,,,,,,,,,,,,,,,,,,,,,,,['l'],[0.41926882695406675],0.41926882695406675,1,[],,,,123,A,1,2019_Jun_30_2030,PM,3.0.6,59.708482119627824,
,,,Pictures/1303.jpg,,,PM_list_1.xlsx,PM_images_list_1.xlsx,cue words.xlsx,cue images.xlsx,recog_task.xlsx,recog_task_images1.xlsx,None,l,0,NoHit,1,,,,,,,,,,,,,,,,,,,,,,,,,,,0,0,0,0,,,,,,,,,,,,,,,,,0,34,34,34,,,,,,,,,,,,,,,,,,,,,,,['l'],[0.5194622128037736],0.5194622128037736,1,[],,,,123,A,1,2019_Jun_30_2030,PM,3.0.6,59.708482119627824,
,,,Pictures/8185.jpg,,,PM_list_1.xlsx,PM_images_list_1.xlsx,cue words.xlsx,cue images.xlsx,recog_task.xlsx,recog_task_images1.xlsx,None,d,1,Hit,1,,,,,,,,,,,,,,,,,,,,,,,,,,,0,0,0,0,,,,,,,,,,,,,,,,,0,35,35,35,,,,,,,,,,,,,,,,,,,,,,,['d'],[0.5354532257188112],0.5354532257188112,1,[],,,,123,A,1,2019_Jun_30_2030,PM,3.0.6,59.708482119627824,
,,,Pictures/9911.jpg,,,PM_list_1.xlsx,PM_images_list_1.xlsx,cue words.xlsx,cue images.xlsx,recog_task.xlsx,recog_task_images1.xlsx,None,l,0,NoHit,1,,,,,,,,,,,,,,,,,,,,,,,,,,,0,0,0,0,,,,,,,,,,,,,,,,,0,36,36,36,,,,,,,,,,,,,,,,,,,,,,,['l'],[0.38536114944145083],0.38536114944145083,1,[],,,,123,A,1,2019_Jun_30_2030,PM,3.0.6,59.708482119627824,
,,,Pictures/2688.jpg,,,PM_list_1.xlsx,PM_images_list_1.xlsx,cue words.xlsx,cue images.xlsx,recog_task.xlsx,recog_task_images1.xlsx,None,l,0,NoHit,1,,,,,,,,,,,,,,,,,,,,,,,,,,,0,0,0,0,,,,,,,,,,,,,,,,,0,37,37,37,,,,,,,,,,,,,,,,,,,,,,,['l'],[0.41981461632531136],0.41981461632531136,1,[],,,,123,A,1,2019_Jun_30_2030,PM,3.0.6,59.708482119627824,
,,,Pictures/8496.jpg,,,PM_list_1.xlsx,PM_images_list_1.xlsx,cue words.xlsx,cue images.xlsx,recog_task.xlsx,recog_task_images1.xlsx,None,l,0,NoHit,1,,,,,,,,,,,,,,,,,,,,,,,,,,,0,0,0,0,,,,,,,,,,,,,,,,,0,38,38,38,,,,,,,,,,,,,,,,,,,,,,,['l'],[0.4524768270784989],0.4524768270784989,1,[],,,,123,A,1,2019_Jun_30_2030,PM,3.0.6,59.708482119627824,
,,,Pictures/5833.jpg,,,PM_list_1.xlsx,PM_images_list_1.xlsx,cue words.xlsx,cue images.xlsx,recog_task.xlsx,recog_task_images1.xlsx,None,l,0,NoHit,1,,,,,,,,,,,,,,,,,,,,,,,,,,,0,0,0,0,,,,,,,,,,,,,,,,,0,39,39,39,,,,,,,,,,,,,,,,,,,,,,,['l'],[0.43606416101101786],0.43606416101101786,1,[],,,,123,A,1,2019_Jun_30_2030,PM,3.0.6,59.708482119627824,
,,,Pictures/8496.jpg,,,PM_list_1.xlsx,PM_images_list_1.xlsx,cue words.xlsx,cue images.xlsx,recog_task.xlsx,recog_task_images1.xlsx,None,d,1,Hit,1,,,,,,,,,,,,,,,,,,,,,,,,,,,0,0,0,0,,,,,,,,,,,,,,,,,0,40,40,40,,,,,,,,,,,,,,,,,,,,,,,['d'],[0.535869749262929],0.535869749262929,1,[],,,,123,A,1,2019_Jun_30_2030,PM,3.0.6,59.708482119627824,
,,,Pictures/2341.jpg,,,PM_list_1.xlsx,PM_images_list_1.xlsx,cue words.xlsx,cue images.xlsx,recog_task.xlsx,recog_task_images1.xlsx,None,l,0,NoHit,1,,,,,,,,,,,,,,,,,,,,,,,,,,,0,0,0,0,,,,,,,,,,,,,,,,,0,41,41,41,,,,,,,,,,,,,,,,,,,,,,,['l'],[0.3849241075804457],0.3849241075804457,1,[],,,,123,A,1,2019_Jun_30_2030,PM,3.0.6,59.708482119627824,
,,,Pictures/9909.jpg,,,PM_list_1.xlsx,PM_images_list_1.xlsx,cue words.xlsx,cue images.xlsx,recog_task.xlsx,recog_task_images1.xlsx,None,h,5,NegH1,1,,,,,,,,,,,,,,,,,,,,,,,,,,,0,0,0,0,,,,,,,,,,,,,,,,,0,42,42,42,,,,,,,,,,,,,,,,,,,,,,,['l'],[0.3358502568444237],0.3358502568444237,0,0,,,,123,A,1,2019_Jun_30_2030,PM,3.0.6,59.708482119627824,
,,,Pictures/9001.jpg,,,PM_list_1.xlsx,PM_images_list_1.xlsx,cue words.xlsx,cue images.xlsx,recog_task.xlsx,recog_task_images1.xlsx,None,l,0,NoHit,1,,,,,,,,,,,,,,,,,,,,,,,,,,,0,0,0,0,,,,,,,,,,,,,,,,,0,43,43,43,,,,,,,,,,,,,,,,,,,,,,,['l'],[0.5699733773944899],0.5699733773944899,1,[],,,,123,A,1,2019_Jun_30_2030,PM,3.0.6,59.708482119627824,
,,,Pictures/9832.jpg,,,PM_list_1.xlsx,PM_images_list_1.xlsx,cue words.xlsx,cue images.xlsx,recog_task.xlsx,recog_task_images1.xlsx,None,l,0,NoHit,1,,,,,,,,,,,,,,,,,,,,,,,,,,,0,0,0,0,,,,,,,,,,,,,,,,,0,44,44,44,,,,,,,,,,,,,,,,,,,,,,,['l'],[0.3193986057303846],0.3193986057303846,1,[],,,,123,A,1,2019_Jun_30_2030,PM,3.0.6,59.708482119627824,
,,,Pictures/9001.jpg,,,PM_list_1.xlsx,PM_images_list_1.xlsx,cue words.xlsx,cue images.xlsx,recog_task.xlsx,recog_task_images1.xlsx,None,d,1,Hit,1,,,,,,,,,,,,,,,,,,,,,,,,,,,0,0,0,0,,,,,,,,,,,,,,,,,0,45,45,45,,,,,,,,,,,,,,,,,,,,,,,"['l', 'd']","[0.4357389444485307, 0.7533709162380546]",0.4357389444485307,0,[],,,,123,A,1,2019_Jun_30_2030,PM,3.0.6,59.708482119627824,
,,,Pictures/2750.jpg,,,PM_list_1.xlsx,PM_images_list_1.xlsx,cue words.xlsx,cue images.xlsx,recog_task.xlsx,recog_task_images1.xlsx,None,l,0,NoHit,1,,,,,,,,,,,,,,,,,,,,,,,,,,,0,0,0,0,,,,,,,,,,,,,,,,,0,46,46,46,,,,,,,,,,,,,,,,,,,,,,,['l'],[0.3683472943957895],0.3683472943957895,1,[],,,,123,A,1,2019_Jun_30_2030,PM,3.0.6,59.708482119627824,
,,,Pictures/8480.jpg,,,PM_list_1.xlsx,PM_images_list_1.xlsx,cue words.xlsx,cue images.xlsx,recog_task.xlsx,recog_task_images1.xlsx,None,l,0,NoHit,1,,,,,,,,,,,,,,,,,,,,,,,,,,,0,0,0,0,,,,,,,,,,,,,,,,,0,47,47,47,,,,,,,,,,,,,,,,,,,,,,,['l'],[0.5529923517024145],0.5529923517024145,1,[],,,,123,A,1,2019_Jun_30_2030,PM,3.0.6,59.708482119627824,
,,,Pictures/7830.jpg,,,PM_list_1.xlsx,PM_images_list_1.xlsx,cue words.xlsx,cue images.xlsx,recog_task.xlsx,recog_task_images1.xlsx,None,l,0,NoHit,1,,,,,,,,,,,,,,,,,,,,,,,,,,,0,0,0,0,,,,,,,,,,,,,,,,,0,48,48,48,,,,,,,,,,,,,,,,,,,,,,,['l'],[0.4028694978915155],0.4028694978915155,1,[],,,,123,A,1,2019_Jun_30_2030,PM,3.0.6,59.708482119627824,
,,,Pictures/8480.jpg,,,PM_list_1.xlsx,PM_images_list_1.xlsx,cue words.xlsx,cue images.xlsx,recog_task.xlsx,recog_task_images1.xlsx,None,d,1,Hit,1,,,,,,,,,,,,,,,,,,,,,,,,,,,0,0,0,0,,,,,,,,,,,,,,,,,0,49,49,49,,,,,,,,,,,,,,,,,,,,,,,['d'],[0.502567364485003],0.502567364485003,1,[],,,,123,A,1,2019_Jun_30_2030,PM,3.0.6,59.708482119627824,
,,,Pictures/2309.jpg,,,PM_list_1.xlsx,PM_images_list_1.xlsx,cue words.xlsx,cue images.xlsx,recog_task.xlsx,recog_task_images1.xlsx,None,l,0,NoHit,1,,,,,,,,,,,,,,,,,,,,,,,,,,,0,0,0,0,,,,,,,,,,,,,,,,,0,50,50,50,,,,,,,,,,,,,,,,,,,,,,,['l'],[0.4024745187489316],0.4024745187489316,1,[],,,,123,A,1,2019_Jun_30_2030,PM,3.0.6,59.708482119627824,
,,,Pictures/8192.jpg,,,PM_list_1.xlsx,PM_images_list_1.xlsx,cue words.xlsx,cue images.xlsx,recog_task.xlsx,recog_task_images1.xlsx,None,h,6,NeuH1,1,,,,,,,,,,,,,,,,,,,,,,,,,,,0,0,0,0,,,,,,,,,,,,,,,,,0,51,51,51,,,,,,,,,,,,,,,,,,,,,,,['h'],[1.0045284102670848],1.0045284102670848,1,1,,,,123,A,1,2019_Jun_30_2030,PM,3.0.6,59.708482119627824,
,,,Pictures/9265.jpg,,,PM_list_1.xlsx,PM_images_list_1.xlsx,cue words.xlsx,cue images.xlsx,recog_task.xlsx,recog_task_images1.xlsx,None,l,0,NoHit,1,,,,,,,,,,,,,,,,,,,,,,,,,,,0,0,0,0,,,,,,,,,,,,,,,,,0,52,52,52,,,,,,,,,,,,,,,,,,,,,,,['l'],[0.45221008779481053],0.45221008779481053,1,[],,,,123,A,1,2019_Jun_30_2030,PM,3.0.6,59.708482119627824,
,,,Pictures/1101.jpg,,,PM_list_1.xlsx,PM_images_list_1.xlsx,cue words.xlsx,cue images.xlsx,recog_task.xlsx,recog_task_images1.xlsx,None,l,0,NoHit,1,,,,,,,,,,,,,,,,,,,,,,,,,,,0,0,0,0,,,,,,,,,,,,,,,,,0,53,53,53,,,,,,,,,,,,,,,,,,,,,,,['l'],[0.6700036419788375],0.6700036419788375,1,[],,,,123,A,1,2019_Jun_30_2030,PM,3.0.6,59.708482119627824,
,,,Pictures/9265.jpg,,,PM_list_1.xlsx,PM_images_list_1.xlsx,cue words.xlsx,cue images.xlsx,recog_task.xlsx,recog_task_images1.xlsx,None,d,1,Hit,1,,,,,,,,,,,,,,,,,,,,,,,,,,,0,0,0,0,,,,,,,,,,,,,,,,,0,54,54,54,,,,,,,,,,,,,,,,,,,,,,,['d'],[0.6029669602867216],0.6029669602867216,1,[],,,,123,A,1,2019_Jun_30_2030,PM,3.0.6,59.708482119627824,
,,,Pictures/9832.jpg,,,PM_list_1.xlsx,PM_images_list_1.xlsx,cue words.xlsx,cue images.xlsx,recog_task.xlsx,recog_task_images1.xlsx,None,l,0,NoHit,1,,,,,,,,,,,,,,,,,,,,,,,,,,,0,0,0,0,,,,,,,,,,,,,,,,,0,55,55,55,,,,,,,,,,,,,,,,,,,,,,,['l'],[0.4022334275068715],0.4022334275068715,1,[],,,,123,A,1,2019_Jun_30_2030,PM,3.0.6,59.708482119627824,
,,,Pictures/5833.jpg,,,PM_list_1.xlsx,PM_images_list_1.xlsx,cue words.xlsx,cue images.xlsx,recog_task.xlsx,recog_task_images1.xlsx,None,l,0,NoHit,1,,,,,,,,,,,,,,,,,,,,,,,,,,,0,0,0,0,,,,,,,,,,,,,,,,,0,56,56,56,,,,,,,,,,,,,,,,,,,,,,,['l'],[0.3528158934786916],0.3528158934786916,1,[],,,,123,A,1,2019_Jun_30_2030,PM,3.0.6,59.708482119627824,
,,,Pictures/9904.jpg,,,PM_list_1.xlsx,PM_images_list_1.xlsx,cue words.xlsx,cue images.xlsx,recog_task.xlsx,recog_task_images1.xlsx,None,l,0,NoHit,1,,,,,,,,,,,,,,,,,,,,,,,,,,,0,0,0,0,,,,,,,,,,,,,,,,,0,57,57,57,,,,,,,,,,,,,,,,,,,,,,,['l'],[0.5360780110349879],0.5360780110349879,1,[],,,,123,A,1,2019_Jun_30_2030,PM,3.0.6,59.708482119627824,
,,,Pictures/8501.jpg,,,PM_list_1.xlsx,PM_images_list_1.xlsx,cue words.xlsx,cue images.xlsx,recog_task.xlsx,recog_task_images1.xlsx,None,l,0,NoHit,1,,,,,,,,,,,,,,,,,,,,,,,,,,,0,0,0,0,,,,,,,,,,,,,,,,,0,58,58,58,,,,,,,,,,,,,,,,,,,,,,,['l'],[0.4357789553469047],0.4357789553469047,1,[],,,,123,A,1,2019_Jun_30_2030,PM,3.0.6,59.708482119627824,
,,,Pictures/9904.jpg,,,PM_list_1.xlsx,PM_images_list_1.xlsx,cue words.xlsx,cue images.xlsx,recog_task.xlsx,recog_task_images1.xlsx,None,d,1,Hit,1,,,,,,,,,,,,,,,,,,,,,,,,,,,0,0,0,0,,,,,,,,,,,,,,,,,0,59,59,59,,,,,,,,,,,,,,,,,,,,,,,['d'],[0.6535027468344197],0.6535027468344197,1,[],,,,123,A,1,2019_Jun_30_2030,PM,3.0.6,59.708482119627824,
,,,Pictures/2301.jpg,,,PM_list_1.xlsx,PM_images_list_1.xlsx,cue words.xlsx,cue images.xlsx,recog_task.xlsx,recog_task_images1.xlsx,None,h,2,NegL1,1,,,,,,,,,,,,,,,,,,,,,,,,,,,0,0,0,0,,,,,,,,,,,,,,,,,0,60,60,60,,,,,,,,,,,,,,,,,,,,,,,"['l', 'h']","[0.41867584513965994, 1.0545050705550238]",0.41867584513965994,0,1,,,,123,A,1,2019_Jun_30_2030,PM,3.0.6,59.708482119627824,
,,,Pictures/1600.jpg,,,PM_list_1.xlsx,PM_images_list_1.xlsx,cue words.xlsx,cue images.xlsx,recog_task.xlsx,recog_task_images1.xlsx,None,l,0,NoHit,1,,,,,,,,,,,,,,,,,,,,,,,,,,,0,0,0,0,,,,,,,,,,,,,,,,,0,61,61,61,,,,,,,,,,,,,,,,,,,,,,,['l'],[0.3856843141838908],0.3856843141838908,1,[],,,,123,A,1,2019_Jun_30_2030,PM,3.0.6,59.708482119627824,
,,,Pictures/1303.jpg,,,PM_list_1.xlsx,PM_images_list_1.xlsx,cue words.xlsx,cue images.xlsx,recog_task.xlsx,recog_task_images1.xlsx,None,l,0,NoHit,1,,,,,,,,,,,,,,,,,,,,,,,,,,,0,0,0,0,,,,,,,,,,,,,,,,,0,62,62,62,,,,,,,,,,,,,,,,,,,,,,,['l'],[0.6524419458582997],0.6524419458582997,1,[],,,,123,A,1,2019_Jun_30_2030,PM,3.0.6,59.708482119627824,
,,,Pictures/1600.jpg,,,PM_list_1.xlsx,PM_images_list_1.xlsx,cue words.xlsx,cue images.xlsx,recog_task.xlsx,recog_task_images1.xlsx,None,d,1,Hit,1,,,,,,,,,,,,,,,,,,,,,,,,,,,0,0,0,0,,,,,,,,,,,,,,,,,0,63,63,63,,,,,,,,,,,,,,,,,,,,,,,['d'],[0.6530862235231325],0.6530862235231325,1,[],,,,123,A,1,2019_Jun_30_2030,PM,3.0.6,59.708482119627824,
,,,Pictures/6200.jpg,,,PM_list_1.xlsx,PM_images_list_1.xlsx,cue words.xlsx,cue images.xlsx,recog_task.xlsx,recog_task_images1.xlsx,None,l,0,NoHit,1,,,,,,,,,,,,,,,,,,,,,,,,,,,0,0,0,0,,,,,,,,,,,,,,,,,0,64,64,64,,,,,,,,,,,,,,,,,,,,,,,['l'],[0.5689546389039606],0.5689546389039606,1,[],,,,123,A,1,2019_Jun_30_2030,PM,3.0.6,59.708482119627824,
,,,Pictures/1321.jpg,,,PM_list_1.xlsx,PM_images_list_1.xlsx,cue words.xlsx,cue images.xlsx,recog_task.xlsx,recog_task_images1.xlsx,None,l,0,NoHit,1,,,,,,,,,,,,,,,,,,,,,,,,,,,0,0,0,0,,,,,,,,,,,,,,,,,0,65,65,65,,,,,,,,,,,,,,,,,,,,,,,['l'],[0.4691941912751645],0.4691941912751645,1,[],,,,123,A,1,2019_Jun_30_2030,PM,3.0.6,59.708482119627824,
,,,Pictures/6200.jpg,,,PM_list_1.xlsx,PM_images_list_1.xlsx,cue words.xlsx,cue images.xlsx,recog_task.xlsx,recog_task_images1.xlsx,None,d,1,Hit,1,,,,,,,,,,,,,,,,,,,,,,,,,,,0,0,0,0,,,,,,,,,,,,,,,,,0,66,66,66,,,,,,,,,,,,,,,,,,,,,,,['d'],[0.7199649135582149],0.7199649135582149,1,[],,,,123,A,1,2019_Jun_30_2030,PM,3.0.6,59.708482119627824,
,,,Pictures/2456.jpg,,,PM_list_1.xlsx,PM_images_list_1.xlsx,cue words.xlsx,cue images.xlsx,recog_task.xlsx,recog_task_images1.xlsx,None,l,0,NoHit,1,,,,,,,,,,,,,,,,,,,,,,,,,,,0,0,0,0,,,,,,,,,,,,,,,,,0,67,67,67,,,,,,,,,,,,,,,,,,,,,,,['l'],[0.6698343652533367],0.6698343652533367,1,[],,,,123,A,1,2019_Jun_30_2030,PM,3.0.6,59.708482119627824,
,,,Pictures/9400.jpg,,,PM_list_1.xlsx,PM_images_list_1.xlsx,cue words.xlsx,cue images.xlsx,recog_task.xlsx,recog_task_images1.xlsx,None,l,0,NoHit,1,,,,,,,,,,,,,,,,,,,,,,,,,,,0,0,0,0,,,,,,,,,,,,,,,,,0,68,68,68,,,,,,,,,,,,,,,,,,,,,,,['l'],[0.4022744643734768],0.4022744643734768,1,[],,,,123,A,1,2019_Jun_30_2030,PM,3.0.6,59.708482119627824,
,,,Pictures/7380.jpg,,,PM_list_1.xlsx,PM_images_list_1.xlsx,cue words.xlsx,cue images.xlsx,recog_task.xlsx,recog_task_images1.xlsx,None,l,0,NoHit,1,,,,,,,,,,,,,,,,,,,,,,,,,,,0,0,0,0,,,,,,,,,,,,,,,,,0,69,69,69,,,,,,,,,,,,,,,,,,,,,,,['l'],[0.5034291371703148],0.5034291371703148,1,[],,,,123,A,1,2019_Jun_30_2030,PM,3.0.6,59.708482119627824,
,,,Pictures/8192.jpg,,,PM_list_1.xlsx,PM_images_list_1.xlsx,cue words.xlsx,cue images.xlsx,recog_task.xlsx,recog_task_images1.xlsx,None,h,6,NeuH1,1,,,,,,,,,,,,,,,,,,,,,,,,,,,0,0,0,0,,,,,,,,,,,,,,,,,0,70,70,70,,,,,,,,,,,,,,,,,,,,,,,['h'],[0.9542562850983813],0.9542562850983813,1,1,,,,123,A,1,2019_Jun_30_2030,PM,3.0.6,59.708482119627824,
,,,Pictures/7380.jpg,,,PM_list_1.xlsx,PM_images_list_1.xlsx,cue words.xlsx,cue images.xlsx,recog_task.xlsx,recog_task_images1.xlsx,None,d,1,Hit,1,,,,,,,,,,,,,,,,,,,,,,,,,,,0,0,0,0,,,,,,,,,,,,,,,,,0,71,71,71,,,,,,,,,,,,,,,,,,,,,,,"['l', 'd']","[0.4026058363961056, 0.8372716687154025]",0.4026058363961056,0,[],,,,123,A,1,2019_Jun_30_2030,PM,3.0.6,59.708482119627824,
,,,Pictures/2341.jpg,,,PM_list_1.xlsx,PM_images_list_1.xlsx,cue words.xlsx,cue images.xlsx,recog_task.xlsx,recog_task_images1.xlsx,None,l,0,NoHit,1,,,,,,,,,,,,,,,,,,,,,,,,,,,0,0,0,0,,,,,,,,,,,,,,,,,0,72,72,72,,,,,,,,,,,,,,,,,,,,,,,['l'],[0.45182741968892515],0.45182741968892515,1,[],,,,123,A,1,2019_Jun_30_2030,PM,3.0.6,59.708482119627824,
,,,Pictures/3103.jpg,,,PM_list_1.xlsx,PM_images_list_1.xlsx,cue words.xlsx,cue images.xlsx,recog_task.xlsx,recog_task_images1.xlsx,None,l,0,NoHit,1,,,,,,,,,,,,,,,,,,,,,,,,,,,0,0,0,0,,,,,,,,,,,,,,,,,0,73,73,73,,,,,,,,,,,,,,,,,,,,,,,['l'],[0.6360887831542641],0.6360887831542641,1,[],,,,123,A,1,2019_Jun_30_2030,PM,3.0.6,59.708482119627824,
,,,Pictures/6213.jpg,,,PM_list_1.xlsx,PM_images_list_1.xlsx,cue words.xlsx,cue images.xlsx,recog_task.xlsx,recog_task_images1.xlsx,None,l,0,NoHit,1,,,,,,,,,,,,,,,,,,,,,,,,,,,0,0,0,0,,,,,,,,,,,,,,,,,0,74,74,74,,,,,,,,,,,,,,,,,,,,,,,['l'],[0.686515822308138],0.686515822308138,1,[],,,,123,A,1,2019_Jun_30_2030,PM,3.0.6,59.708482119627824,
,,,Pictures/1321.jpg,,,PM_list_1.xlsx,PM_images_list_1.xlsx,cue words.xlsx,cue images.xlsx,recog_task.xlsx,recog_task_images1.xlsx,None,l,0,NoHit,1,,,,,,,,,,,,,,,,,,,,,,,,,,,0,0,0,0,,,,,,,,,,,,,,,,,0,75,75,75,,,,,,,,,,,,,,,,,,,,,,,['l'],[0.4698805316584185],0.4698805316584185,1,[],,,,123,A,1,2019_Jun_30_2030,PM,3.0.6,59.708482119627824,
,,,Pictures/6213.jpg,,,PM_list_1.xlsx,PM_images_list_1.xlsx,cue words.xlsx,cue images.xlsx,recog_task.xlsx,recog_task_images1.xlsx,None,d,1,Hit,1,,,,,,,,,,,,,,,,,,,,,,,,,,,0,0,0,0,,,,,,,,,,,,,,,,,0,76,76,76,,,,,,,,,,,,,,,,,,,,,,,['d'],[0.4688474303111434],0.4688474303111434,1,[],,,,123,A,1,2019_Jun_30_2030,PM,3.0.6,59.708482119627824,
,,,Pictures/2456.jpg,,,PM_list_1.xlsx,PM_images_list_1.xlsx,cue words.xlsx,cue images.xlsx,recog_task.xlsx,recog_task_images1.xlsx,None,l,0,NoHit,1,,,,,,,,,,,,,,,,,,,,,,,,,,,0,0,0,0,,,,,,,,,,,,,,,,,0,77,77,77,,,,,,,,,,,,,,,,,,,,,,,['l'],[0.4191549498355016],0.4191549498355016,1,[],,,,123,A,1,2019_Jun_30_2030,PM,3.0.6,59.708482119627824,
,,,Pictures/9911.jpg,,,PM_list_1.xlsx,PM_images_list_1.xlsx,cue words.xlsx,cue images.xlsx,recog_task.xlsx,recog_task_images1.xlsx,None,l,0,NoHit,1,,,,,,,,,,,,,,,,,,,,,,,,,,,0,0,0,0,,,,,,,,,,,,,,,,,0,78,78,78,,,,,,,,,,,,,,,,,,,,,,,['l'],[0.31902311905287206],0.31902311905287206,1,[],,,,123,A,1,2019_Jun_30_2030,PM,3.0.6,59.708482119627824,
,,,Pictures/8034.jpg,,,PM_list_1.xlsx,PM_images_list_1.xlsx,cue words.xlsx,cue images.xlsx,recog_task.xlsx,recog_task_images1.xlsx,None,l,0,NoHit,1,,,,,,,,,,,,,,,,,,,,,,,,,,,0,0,0,0,,,,,,,,,,,,,,,,,0,79,79,79,,,,,,,,,,,,,,,,,,,,,,,['l'],[0.3856443032855168],0.3856443032855168,1,[],,,,123,A,1,2019_Jun_30_2030,PM,3.0.6,59.708482119627824,
,,,Pictures/2410.jpg,,,PM_list_1.xlsx,PM_images_list_1.xlsx,cue words.xlsx,cue images.xlsx,recog_task.xlsx,recog_task_images1.xlsx,None,l,0,NoHit,1,,,,,,,,,,,,,,,,,,,,,,,,,,,0,0,0,0,,,,,,,,,,,,,,,,,0,80,80,80,,,,,,,,,,,,,,,,,,,,,,,['l'],[0.33617239561863244],0.33617239561863244,1,[],,,,123,A,1,2019_Jun_30_2030,PM,3.0.6,59.708482119627824,
,,,Pictures/8034.jpg,,,PM_list_1.xlsx,PM_images_list_1.xlsx,cue words.xlsx,cue images.xlsx,recog_task.xlsx,recog_task_images1.xlsx,None,d,1,Hit,1,,,,,,,,,,,,,,,,,,,,,,,,,,,0,0,0,0,,,,,,,,,,,,,,,,,0,81,81,81,,,,,,,,,,,,,,,,,,,,,,,['d'],[0.5532888425514102],0.5532888425514102,1,[],,,,123,A,1,2019_Jun_30_2030,PM,3.0.6,59.708482119627824,
,,,Pictures/2151.jpg,,,PM_list_1.xlsx,PM_images_list_1.xlsx,cue words.xlsx,cue images.xlsx,recog_task.xlsx,recog_task_images1.xlsx,None,h,4,PosL1,1,,,,,,,,,,,,,,,,,,,,,,,,,,,0,0,0,0,,,,,,,,,,,,,,,,,0,82,82,82,,,,,,,,,,,,,,,,,,,,,,,"['l', 'h']","[0.31977819616440684, 0.937227041227743]",0.31977819616440684,0,1,,,,123,A,1,2019_Jun_30_2030,PM,3.0.6,59.708482119627824,
,,,Pictures/1931.jpg,,,PM_list_1.xlsx,PM_images_list_1.xlsx,cue words.xlsx,cue images.xlsx,recog_task.xlsx,recog_task_images1.xlsx,None,l,0,NoHit,1,,,,,,,,,,,,,,,,,,,,,,,,,,,0,0,0,0,,,,,,,,,,,,,,,,,0,83,83,83,,,,,,,,,,,,,,,,,,,,,,,['l'],[0.36845911969430745],0.36845911969430745,1,[],,,,123,A,1,2019_Jun_30_2030,PM,3.0.6,59.708482119627824,
,,,Pictures/7830.jpg,,,PM_list_1.xlsx,PM_images_list_1.xlsx,cue words.xlsx,cue images.xlsx,recog_task.xlsx,recog_task_images1.xlsx,None,l,0,NoHit,1,,,,,,,,,,,,,,,,,,,,,,,,,,,0,0,0,0,,,,,,,,,,,,,,,,,0,84,84,84,,,,,,,,,,,,,,,,,,,,,,,['l'],[0.31873483571689576],0.31873483571689576,1,[],,,,123,A,1,2019_Jun_30_2030,PM,3.0.6,59.708482119627824,
,,,Pictures/1931.jpg,,,PM_list_1.xlsx,PM_images_list_1.xlsx,cue words.xlsx,cue images.xlsx,recog_task.xlsx,recog_task_images1.xlsx,None,d,1,Hit,1,,,,,,,,,,,,,,,,,,,,,,,,,,,0,0,0,0,,,,,,,,,,,,,,,,,0,85,85,85,,,,,,,,,,,,,,,,,,,,,,,['d'],[0.6365678877336904],0.6365678877336904,1,[],,,,123,A,1,2019_Jun_30_2030,PM,3.0.6,59.708482119627824,
,,,Pictures/7650.jpg,,,PM_list_1.xlsx,PM_images_list_1.xlsx,cue words.xlsx,cue images.xlsx,recog_task.xlsx,recog_task_images1.xlsx,None,l,0,NoHit,1,,,,,,,,,,,,,,,,,,,,,,,,,,,0,0,0,0,,,,,,,,,,,,,,,,,0,86,86,86,,,,,,,,,,,,,,,,,,,,,,,['l'],[0.31873278378043324],0.31873278378043324,1,[],,,,123,A,1,2019_Jun_30_2030,PM,3.0.6,59.708482119627824,
,,,Pictures/5395.jpg,,,PM_list_1.xlsx,PM_images_list_1.xlsx,cue words.xlsx,cue images.xlsx,recog_task.xlsx,recog_task_images1.xlsx,None,l,0,NoHit,1,,,,,,,,,,,,,,,,,,,,,,,,,,,0,0,0,0,,,,,,,,,,,,,,,,,0,87,87,87,,,,,,,,,,,,,,,,,,,,,,,['l'],[0.3857356102671474],0.3857356102671474,1,[],,,,123,A,1,2019_Jun_30_2030,PM,3.0.6,59.708482119627824,
,,,Pictures/2520.jpg,,,PM_list_1.xlsx,PM_images_list_1.xlsx,cue words.xlsx,cue images.xlsx,recog_task.xlsx,recog_task_images1.xlsx,None,l,0,NoHit,1,,,,,,,,,,,,,,,,,,,,,,,,,,,0,0,0,0,,,,,,,,,,,,,,,,,0,88,88,88,,,,,,,,,,,,,,,,,,,,,,,['l'],[0.3521695639938116],0.3521695639938116,1,[],,,,123,A,1,2019_Jun_30_2030,PM,3.0.6,59.708482119627824,
,,,Pictures/5395.jpg,,,PM_list_1.xlsx,PM_images_list_1.xlsx,cue words.xlsx,cue images.xlsx,recog_task.xlsx,recog_task_images1.xlsx,None,d,1,Hit,1,,,,,,,,,,,,,,,,,,,,,,,,,,,0,0,0,0,,,,,,,,,,,,,,,,,0,89,89,89,,,,,,,,,,,,,,,,,,,,,,,['d'],[0.5694942728150636],0.5694942728150636,1,[],,,,123,A,1,2019_Jun_30_2030,PM,3.0.6,59.708482119627824,
,,,Pictures/8090.jpg,,,PM_list_1.xlsx,PM_images_list_1.xlsx,cue words.xlsx,cue images.xlsx,recog_task.xlsx,recog_task_images1.xlsx,None,l,0,NoHit,1,,,,,,,,,,,,,,,,,,,,,,,,,,,0,0,0,0,,,,,,,,,,,,,,,,,0,90,90,90,,,,,,,,,,,,,,,,,,,,,,,['l'],[0.31817981298081577],0.31817981298081577,1,[],,,,123,A,1,2019_Jun_30_2030,PM,3.0.6,59.708482119627824,
,,,Pictures/6910.jpg,,,PM_list_1.xlsx,PM_images_list_1.xlsx,cue words.xlsx,cue images.xlsx,recog_task.xlsx,recog_task_images1.xlsx,None,l,0,NoHit,1,,,,,,,,,,,,,,,,,,,,,,,,,,,0,0,0,0,,,,,,,,,,,,,,,,,0,91,91,91,,,,,,,,,,,,,,,,,,,,,,,['l'],[0.4020856950664893],0.4020856950664893,1,[],,,,123,A,1,2019_Jun_30_2030,PM,3.0.6,59.708482119627824,
,,,Pictures/2274.jpg,,,PM_list_1.xlsx,PM_images_list_1.xlsx,cue words.xlsx,cue images.xlsx,recog_task.xlsx,recog_task_images1.xlsx,None,l,0,NoHit,1,,,,,,,,,,,,,,,,,,,,,,,,,,,0,0,0,0,,,,,,,,,,,,,,,,,0,92,92,92,,,,,,,,,,,,,,,,,,,,,,,['l'],[0.3685237526660785],0.3685237526660785,1,[],,,,123,A,1,2019_Jun_30_2030,PM,3.0.6,59.708482119627824,
,,,Pictures/2301.jpg,,,PM_list_1.xlsx,PM_images_list_1.xlsx,cue words.xlsx,cue images.xlsx,recog_task.xlsx,recog_task_images1.xlsx,None,h,2,NeGL1,1,,,,,,,,,,,,,,,,,,,,,,,,,,,0,0,0,0,,,,,,,,,,,,,,,,,0,93,93,93,,,,,,,,,,,,,,,,,,,,,,,['h'],[1.0044042739318684],1.0044042739318684,1,1,,,,123,A,1,2019_Jun_30_2030,PM,3.0.6,59.708482119627824,
,,,Pictures/2274.jpg,,,PM_list_1.xlsx,PM_images_list_1.xlsx,cue words.xlsx,cue images.xlsx,recog_task.xlsx,recog_task_images1.xlsx,None,d,1,Hit,1,,,,,,,,,,,,,,,,,,,,,,,,,,,0,0,0,0,,,,,,,,,,,,,,,,,0,94,94,94,,,,,,,,,,,,,,,,,,,,,,,"['l', 'd']","[0.3859100166009739, 0.9880408521275967]",0.3859100166009739,0,[],,,,123,A,1,2019_Jun_30_2030,PM,3.0.6,59.708482119627824,
,,,Pictures/2688.jpg,,,PM_list_1.xlsx,PM_images_list_1.xlsx,cue words.xlsx,cue images.xlsx,recog_task.xlsx,recog_task_images1.xlsx,None,l,0,NoHit,1,,,,,,,,,,,,,,,,,,,,,,,,,,,0,0,0,0,,,,,,,,,,,,,,,,,0,95,95,95,,,,,,,,,,,,,,,,,,,,,,,['l'],[0.5863244881620631],0.5863244881620631,1,[],,,,123,A,1,2019_Jun_30_2030,PM,3.0.6,59.708482119627824,
,,,Pictures/5260.jpg,,,PM_list_1.xlsx,PM_images_list_1.xlsx,cue words.xlsx,cue images.xlsx,recog_task.xlsx,recog_task_images1.xlsx,None,l,0,NoHit,1,,,,,,,,,,,,,,,,,,,,,,,,,,,0,0,0,0,,,,,,,,,,,,,,,,,0,96,96,96,,,,,,,,,,,,,,,,,,,,,,,['l'],[0.4523732091765851],0.4523732091765851,1,[],,,,123,A,1,2019_Jun_30_2030,PM,3.0.6,59.708482119627824,
,,,Pictures/8501.jpg,,,PM_list_1.xlsx,PM_images_list_1.xlsx,cue words.xlsx,cue images.xlsx,recog_task.xlsx,recog_task_images1.xlsx,None,l,0,NoHit,1,,,,,,,,,,,,,,,,,,,,,,,,,,,0,0,0,0,,,,,,,,,,,,,,,,,0,97,97,97,,,,,,,,,,,,,,,,,,,,,,,['l'],[0.35396594961639494],0.35396594961639494,1,[],,,,123,A,1,2019_Jun_30_2030,PM,3.0.6,59.708482119627824,
,,,Pictures/5260.jpg,,,PM_list_1.xlsx,PM_images_list_1.xlsx,cue words.xlsx,cue images.xlsx,recog_task.xlsx,recog_task_images1.xlsx,None,d,1,Hit,1,,,,,,,,,,,,,,,,,,,,,,,,,,,0,0,0,0,,,,,,,,,,,,,,,,,0,98,98,98,,,,,,,,,,,,,,,,,,,,,,,"['l', 'd']","[0.28674152470193803, 0.7870323729002848]",0.28674152470193803,0,[],,,,123,A,1,2019_Jun_30_2030,PM,3.0.6,59.708482119627824,
,,,Pictures/5460.jpg,,,PM_list_1.xlsx,PM_images_list_1.xlsx,cue words.xlsx,cue images.xlsx,recog_task.xlsx,recog_task_images1.xlsx,None,l,0,NoHit,1,,,,,,,,,,,,,,,,,,,,,,,,,,,0,0,0,0,,,,,,,,,,,,,,,,,0,99,99,99,,,,,,,,,,,,,,,,,,,,,,,['l'],[0.3684067977592349],0.3684067977592349,1,[],,,,123,A,1,2019_Jun_30_2030,PM,3.0.6,59.708482119627824,
,,,Pictures/8065.jpg,,,PM_list_1.xlsx,PM_images_list_1.xlsx,cue words.xlsx,cue images.xlsx,recog_task.xlsx,recog_task_images1.xlsx,None,l,0,NoHit,1,,,,,,,,,,,,,,,,,,,,,,,,,,,0,0,0,0,,,,,,,,,,,,,,,,,0,100,100,100,,,,,,,,,,,,,,,,,,,,,,,['l'],[0.35221573046874255],0.35221573046874255,1,[],,,,123,A,1,2019_Jun_30_2030,PM,3.0.6,59.708482119627824,
,,,Pictures/5460.jpg,,,PM_list_1.xlsx,PM_images_list_1.xlsx,cue words.xlsx,cue images.xlsx,recog_task.xlsx,recog_task_images1.xlsx,None,d,1,Hit,1,,,,,,,,,,,,,,,,,,,,,,,,,,,0,0,0,0,,,,,,,,,,,,,,,,,0,101,101,101,,,,,,,,,,,,,,,,,,,,,,,['d'],[0.7203927221708],0.7203927221708,1,[],,,,123,A,1,2019_Jun_30_2030,PM,3.0.6,59.708482119627824,
,,,Pictures/5831.jpg,,,PM_list_1.xlsx,PM_images_list_1.xlsx,cue words.xlsx,cue images.xlsx,recog_task.xlsx,recog_task_images1.xlsx,None,l,0,NoHit,1,,,,,,,,,,,,,,,,,,,,,,,,,,,0,0,0,0,,,,,,,,,,,,,,,,,0,102,102,102,,,,,,,,,,,,,,,,,,,,,,,['l'],[0.6030510856071487],0.6030510856071487,1,[],,,,123,A,1,2019_Jun_30_2030,PM,3.0.6,59.708482119627824,
,,,Pictures/1022.jpg,,,PM_list_1.xlsx,PM_images_list_1.xlsx,cue words.xlsx,cue images.xlsx,recog_task.xlsx,recog_task_images1.xlsx,None,l,0,NoHit,1,,,,,,,,,,,,,,,,,,,,,,,,,,,0,0,0,0,,,,,,,,,,,,,,,,,0,103,103,103,,,,,,,,,,,,,,,,,,,,,,,['l'],[0.5359384858747944],0.5359384858747944,1,[],,,,123,A,1,2019_Jun_30_2030,PM,3.0.6,59.708482119627824,
,,,Pictures/5831.jpg,,,PM_list_1.xlsx,PM_images_list_1.xlsx,cue words.xlsx,cue images.xlsx,recog_task.xlsx,recog_task_images1.xlsx,None,d,1,Hit,1,,,,,,,,,,,,,,,,,,,,,,,,,,,0,0,0,0,,,,,,,,,,,,,,,,,0,104,104,104,,,,,,,,,,,,,,,,,,,,,,,['d'],[0.8033486024942249],0.8033486024942249,1,[],,,,123,A,1,2019_Jun_30_2030,PM,3.0.6,59.708482119627824,
,,,Pictures/7405.jpg,,,PM_list_1.xlsx,PM_images_list_1.xlsx,cue words.xlsx,cue images.xlsx,recog_task.xlsx,recog_task_images1.xlsx,None,h,7,PosH1,1,,,,,,,,,,,,,,,,,,,,,,,,,,,0,0,0,0,,,,,,,,,,,,,,,,,0,105,105,105,,,,,,,,,,,,,,,,,,,,,,,['h'],[0.9211724211927503],0.9211724211927503,1,1,,,,123,A,1,2019_Jun_30_2030,PM,3.0.6,59.708482119627824,
,,,Pictures/2211.jpg,,,PM_list_1.xlsx,PM_images_list_1.xlsx,cue words.xlsx,cue images.xlsx,recog_task.xlsx,recog_task_images1.xlsx,None,l,0,NoHit,1,,,,,,,,,,,,,,,,,,,,,,,,,,,0,0,0,0,,,,,,,,,,,,,,,,,0,106,106,106,,,,,,,,,,,,,,,,,,,,,,,['l'],[0.418377302470617],0.418377302470617,1,[],,,,123,A,1,2019_Jun_30_2030,PM,3.0.6,59.708482119627824,
,,,Pictures/9330.jpg,,,PM_list_1.xlsx,PM_images_list_1.xlsx,cue words.xlsx,cue images.xlsx,recog_task.xlsx,recog_task_images1.xlsx,None,l,0,NoHit,1,,,,,,,,,,,,,,,,,,,,,,,,,,,0,0,0,0,,,,,,,,,,,,,,,,,0,107,107,107,,,,,,,,,,,,,,,,,,,,,,,['l'],[0.6365176175022498],0.6365176175022498,1,[],,,,123,A,1,2019_Jun_30_2030,PM,3.0.6,59.708482119627824,
,,,Pictures/6021.jpg,,,PM_list_1.xlsx,PM_images_list_1.xlsx,cue words.xlsx,cue images.xlsx,recog_task.xlsx,recog_task_images1.xlsx,None,l,0,NoHit,1,,,,,,,,,,,,,,,,,,,,,,,,,,,0,0,0,0,,,,,,,,,,,,,,,,,0,108,108,108,,,,,,,,,,,,,,,,,,,,,,,['l'],[0.4528933505062014],0.4528933505062014,1,[],,,,123,A,1,2019_Jun_30_2030,PM,3.0.6,59.708482119627824,
,,,Pictures/9330.jpg,,,PM_list_1.xlsx,PM_images_list_1.xlsx,cue words.xlsx,cue images.xlsx,recog_task.xlsx,recog_task_images1.xlsx,None,d,1,Hit,1,,,,,,,,,,,,,,,,,,,,,,,,,,,0,0,0,0,,,,,,,,,,,,,,,,,0,109,109,109,,,,,,,,,,,,,,,,,,,,,,,['d'],[0.6865753256715834],0.6865753256715834,1,[],,,,123,A,1,2019_Jun_30_2030,PM,3.0.6,59.708482119627824,
,,,Pictures/7650.jpg,,,PM_list_1.xlsx,PM_images_list_1.xlsx,cue words.xlsx,cue images.xlsx,recog_task.xlsx,recog_task_images1.xlsx,None,l,0,NoHit,1,,,,,,,,,,,,,,,,,,,,,,,,,,,0,0,0,0,,,,,,,,,,,,,,,,,0,110,110,110,,,,,,,,,,,,,,,,,,,,,,,['l'],[0.46961481834296137],0.46961481834296137,1,[],,,,123,A,1,2019_Jun_30_2030,PM,3.0.6,59.708482119627824,
,,,Pictures/1313.jpg,,,PM_list_1.xlsx,PM_images_list_1.xlsx,cue words.xlsx,cue images.xlsx,recog_task.xlsx,recog_task_images1.xlsx,None,l,0,NoHit,1,,,,,,,,,,,,,,,,,,,,,,,,,,,0,0,0,0,,,,,,,,,,,,,,,,,0,111,111,111,,,,,,,,,,,,,,,,,,,,,,,['l'],[0.5198376994812861],0.5198376994812861,1,[],,,,123,A,1,2019_Jun_30_2030,PM,3.0.6,59.708482119627824,
,,,Pictures/9400.jpg,,,PM_list_1.xlsx,PM_images_list_1.xlsx,cue words.xlsx,cue images.xlsx,recog_task.xlsx,recog_task_images1.xlsx,None,l,0,NoHit,1,,,,,,,,,,,,,,,,,,,,,,,,,,,0,0,0,0,,,,,,,,,,,,,,,,,0,112,112,112,,,,,,,,,,,,,,,,,,,,,,,['l'],[0.603365017217584],0.603365017217584,1,[],,,,123,A,1,2019_Jun_30_2030,PM,3.0.6,59.708482119627824,
,,,Pictures/1313.jpg,,,PM_list_1.xlsx,PM_images_list_1.xlsx,cue words.xlsx,cue images.xlsx,recog_task.xlsx,recog_task_images1.xlsx,None,d,1,Hit,1,,,,,,,,,,,,,,,,,,,,,,,,,,,0,0,0,0,,,,,,,,,,,,,,,,,0,113,113,113,,,,,,,,,,,,,,,,,,,,,,,"['l', 'd']","[0.3685894113732502, 0.7529995332006365]",0.3685894113732502,0,[],,,,123,A,1,2019_Jun_30_2030,PM,3.0.6,59.708482119627824,
,,,Pictures/5920.jpg,,,PM_list_1.xlsx,PM_images_list_1.xlsx,cue words.xlsx,cue images.xlsx,recog_task.xlsx,recog_task_images1.xlsx,None,l,0,NoHit,1,,,,,,,,,,,,,,,,,,,,,,,,,,,0,0,0,0,,,,,,,,,,,,,,,,,0,114,114,114,,,,,,,,,,,,,,,,,,,,,,,['l'],[0.369126993464306],0.369126993464306,1,[],,,,123,A,1,2019_Jun_30_2030,PM,3.0.6,59.708482119627824,
,,,Pictures/2222.jpg,,,PM_list_1.xlsx,PM_images_list_1.xlsx,cue words.xlsx,cue images.xlsx,recog_task.xlsx,recog_task_images1.xlsx,None,l,0,NoHit,1,,,,,,,,,,,,,,,,,,,,,,,,,,,0,0,0,0,,,,,,,,,,,,,,,,,0,115,115,115,,,,,,,,,,,,,,,,,,,,,,,['l'],[0.3691208380041644],0.3691208380041644,1,[],,,,123,A,1,2019_Jun_30_2030,PM,3.0.6,59.708482119627824,
,,,Pictures/1935.jpg,,,PM_list_1.xlsx,PM_images_list_1.xlsx,cue words.xlsx,cue images.xlsx,recog_task.xlsx,recog_task_images1.xlsx,None,l,0,NoHit,1,,,,,,,,,,,,,,,,,,,,,,,,,,,0,0,0,0,,,,,,,,,,,,,,,,,0,116,116,116,,,,,,,,,,,,,,,,,,,,,,,['l'],[0.5194345130585134],0.5194345130585134,1,[],,,,123,A,1,2019_Jun_30_2030,PM,3.0.6,59.708482119627824,
,,,Pictures/7042.jpg,,,PM_list_1.xlsx,PM_images_list_1.xlsx,cue words.xlsx,cue images.xlsx,recog_task.xlsx,recog_task_images1.xlsx,None,h,3,NeuL1,1,,,,,,,,,,,,,,,,,,,,,,,,,,,0,0,0,0,,,,,,,,,,,,,,,,,0,117,117,117,,,,,,,,,,,,,,,,,,,,,,,['h'],[1.0039764654356986],1.0039764654356986,1,1,,,,123,A,1,2019_Jun_30_2030,PM,3.0.6,59.708482119627824,
,,,Pictures/1935.jpg,,,PM_list_1.xlsx,PM_images_list_1.xlsx,cue words.xlsx,cue images.xlsx,recog_task.xlsx,recog_task_images1.xlsx,None,d,1,Hit,1,,,,,,,,,,,,,,,,,,,,,,,,,,,0,0,0,0,,,,,,,,,,,,,,,,,0,118,118,118,,,,,,,,,,,,,,,,,,,,,,,['d'],[0.6530246682232246],0.6530246682232246,1,[],,,,123,A,1,2019_Jun_30_2030,PM,3.0.6,59.708482119627824,
,,,Pictures/2410.jpg,,,PM_list_1.xlsx,PM_images_list_1.xlsx,cue words.xlsx,cue images.xlsx,recog_task.xlsx,recog_task_images1.xlsx,None,l,0,NoHit,1,,,,,,,,,,,,,,,,,,,,,,,,,,,0,0,0,0,,,,,,,,,,,,,,,,,0,119,119,119,,,,,,,,,,,,,,,,,,,,,,,['l'],[0.36883768416009843],0.36883768416009843,1,[],,,,123,A,1,2019_Jun_30_2030,PM,3.0.6,59.708482119627824,
,,,Pictures/2720.jpg,,,PM_list_1.xlsx,PM_images_list_1.xlsx,cue words.xlsx,cue images.xlsx,recog_task.xlsx,recog_task_images1.xlsx,None,l,0,NoHit,1,,,,,,,,,,,,,,,,,,,,,,,,,,,0,0,0,0,,,,,,,,,,,,,,,,,0,120,120,120,,,,,,,,,,,,,,,,,,,,,,,['l'],[0.4023514083819464],0.4023514083819464,1,[],,,,123,A,1,2019_Jun_30_2030,PM,3.0.6,59.708482119627824,
,,,Pictures/2590.jpg,,,PM_list_1.xlsx,PM_images_list_1.xlsx,cue words.xlsx,cue images.xlsx,recog_task.xlsx,recog_task_images1.xlsx,None,l,0,NoHit,1,,,,,,,,,,,,,,,,,,,,,,,,,,,0,0,0,0,,,,,,,,,,,,,,,,,0,121,121,121,,,,,,,,,,,,,,,,,,,,,,,['l'],[0.4691511027049273],0.4691511027049273,1,[],,,,123,A,1,2019_Jun_30_2030,PM,3.0.6,59.708482119627824,
,,,Pictures/6415.jpg,,,PM_list_1.xlsx,PM_images_list_1.xlsx,cue words.xlsx,cue images.xlsx,recog_task.xlsx,recog_task_images1.xlsx,None,l,0,NoHit,1,,,,,,,,,,,,,,,,,,,,,,,,,,,0,0,0,0,,,,,,,,,,,,,,,,,0,122,122,122,,,,,,,,,,,,,,,,,,,,,,,['l'],[0.35235115187242627],0.35235115187242627,1,[],,,,123,A,1,2019_Jun_30_2030,PM,3.0.6,59.708482119627824,
,,,Pictures/2590.jpg,,,PM_list_1.xlsx,PM_images_list_1.xlsx,cue words.xlsx,cue images.xlsx,recog_task.xlsx,recog_task_images1.xlsx,None,d,1,Hit,1,,,,,,,,,,,,,,,,,,,,,,,,,,,0,0,0,0,,,,,,,,,,,,,,,,,0,123,123,123,,,,,,,,,,,,,,,,,,,,,,,['d'],[0.43558813421986997],0.43558813421986997,1,[],,,,123,A,1,2019_Jun_30_2030,PM,3.0.6,59.708482119627824,
,,,Pictures/5920.jpg,,,PM_list_1.xlsx,PM_images_list_1.xlsx,cue words.xlsx,cue images.xlsx,recog_task.xlsx,recog_task_images1.xlsx,None,l,0,NoHit,1,,,,,,,,,,,,,,,,,,,,,,,,,,,0,0,0,0,,,,,,,,,,,,,,,,,0,124,124,124,,,,,,,,,,,,,,,,,,,,,,,['l'],[0.519360646721907],0.519360646721907,1,[],,,,123,A,1,2019_Jun_30_2030,PM,3.0.6,59.708482119627824,
,,,Pictures/2211.jpg,,,PM_list_1.xlsx,PM_images_list_1.xlsx,cue words.xlsx,cue images.xlsx,recog_task.xlsx,recog_task_images1.xlsx,None,l,0,NoHit,1,,,,,,,,,,,,,,,,,,,,,,,,,,,0,0,0,0,,,,,,,,,,,,,,,,,0,125,125,125,,,,,,,,,,,,,,,,,,,,,,,['l'],[0.4859002702869475],0.4859002702869475,1,[],,,,123,A,1,2019_Jun_30_2030,PM,3.0.6,59.708482119627824,
,,,Pictures/9909.jpg,,,PM_list_1.xlsx,PM_images_list_1.xlsx,cue words.xlsx,cue images.xlsx,recog_task.xlsx,recog_task_images1.xlsx,None,h,6,NegH1,1,,,,,,,,,,,,,,,,,,,,,,,,,,,0,0,0,0,,,,,,,,,,,,,,,,,0,126,126,126,,,,,,,,,,,,,,,,,,,,,,,['h'],[0.9202932078624144],0.9202932078624144,1,1,,,,123,A,1,2019_Jun_30_2030,PM,3.0.6,59.708482119627824,
,,,Pictures/6415.jpg,,,PM_list_1.xlsx,PM_images_list_1.xlsx,cue words.xlsx,cue images.xlsx,recog_task.xlsx,recog_task_images1.xlsx,None,l,0,NoHit,1,,,,,,,,,,,,,,,,,,,,,,,,,,,0,0,0,0,,,,,,,,,,,,,,,,,0,127,127,127,,,,,,,,,,,,,,,,,,,,,,,['l'],[0.23517263669054955],0.23517263669054955,1,[],,,,123,A,1,2019_Jun_30_2030,PM,3.0.6,59.708482119627824,
,,,Pictures/1122.jpg,,,PM_list_1.xlsx,PM_images_list_1.xlsx,cue words.xlsx,cue images.xlsx,recog_task.xlsx,recog_task_images1.xlsx,None,l,0,NoHit,1,,,,,,,,,,,,,,,,,,,,,,,,,,,0,0,0,0,,,,,,,,,,,,,,,,,0,128,128,128,,,,,,,,,,,,,,,,,,,,,,,['l'],[0.43544450541958213],0.43544450541958213,1,[],,,,123,A,1,2019_Jun_30_2030,PM,3.0.6,59.708482119627824,
,,,Pictures/6415.jpg,,,PM_list_1.xlsx,PM_images_list_1.xlsx,cue words.xlsx,cue images.xlsx,recog_task.xlsx,recog_task_images1.xlsx,None,d,1,Hit,1,,,,,,,,,,,,,,,,,,,,,,,,,,,0,0,0,0,,,,,,,,,,,,,,,,,0,129,129,129,,,,,,,,,,,,,,,,,,,,,,,['d'],[0.8537725638598204],0.8537725638598204,1,[],,,,123,A,1,2019_Jun_30_2030,PM,3.0.6,59.708482119627824,
,,,Pictures/9342.jpg,,,PM_list_1.xlsx,PM_images_list_1.xlsx,cue words.xlsx,cue images.xlsx,recog_task.xlsx,recog_task_images1.xlsx,None,l,0,NoHit,1,,,,,,,,,,,,,,,,,,,,,,,,,,,0,0,0,0,,,,,,,,,,,,,,,,,0,130,130,130,,,,,,,,,,,,,,,,,,,,,,,['l'],[0.6030623707920313],0.6030623707920313,1,[],,,,123,A,1,2019_Jun_30_2030,PM,3.0.6,59.708482119627824,
,,,Pictures/2650.jpg,,,PM_list_1.xlsx,PM_images_list_1.xlsx,cue words.xlsx,cue images.xlsx,recog_task.xlsx,recog_task_images1.xlsx,None,l,0,NoHit,1,,,,,,,,,,,,,,,,,,,,,,,,,,,0,0,0,0,,,,,,,,,,,,,,,,,0,131,131,131,,,,,,,,,,,,,,,,,,,,,,,['l'],[0.48529189988039434],0.48529189988039434,1,[],,,,123,A,1,2019_Jun_30_2030,PM,3.0.6,59.708482119627824,
,,,,,l,PM_list_1.xlsx,PM_images_list_1.xlsx,cue words.xlsx,cue images.xlsx,recog_task.xlsx,recog_task_images1.xlsx,,,,,,Pictures/9400.jpg,None,,,,,,,,,,,,,,,,,,,,,,,,,0,0,0,0,,,,,,,,,,,,,,,,,,,,,0,0,0,6,,,,,,,,,,,,,,,,,,,,,,,,l,1,2.258556428248994,123,A,1,2019_Jun_30_2030,PM,3.0.6,59.708482119627824,
,,,,,d,PM_list_1.xlsx,PM_images_list_1.xlsx,cue words.xlsx,cue images.xlsx,recog_task.xlsx,recog_task_images1.xlsx,,,,,,Pictures/2301.jpg,NegL1,,,,,,,,,,,,,,,,,,,,,,,,,0,0,0,0,,,,,,,,,,,,,,,,,,,,,0,1,1,0,,,,,,,,,,,,,,,,,,,,,,,,d,1,0.6524327124934644,123,A,1,2019_Jun_30_2030,PM,3.0.6,59.708482119627824,
,,,,,d,PM_list_1.xlsx,PM_images_list_1.xlsx,cue words.xlsx,cue images.xlsx,recog_task.xlsx,recog_task_images1.xlsx,,,,,,Pictures/8192.jpg,NeuH2,,,,,,,,,,,,,,,,,,,,,,,,,0,0,0,0,,,,,,,,,,,,,,,,,,,,,0,2,2,3,,,,,,,,,,,,,,,,,,,,,,,,d,1,0.6026068623177707,123,A,1,2019_Jun_30_2030,PM,3.0.6,59.708482119627824,
,,,,,d,PM_list_1.xlsx,PM_images_list_1.xlsx,cue words.xlsx,cue images.xlsx,recog_task.xlsx,recog_task_images1.xlsx,,,,,,Pictures/7405.jpg,PosH2,,,,,,,,,,,,,,,,,,,,,,,,,0,0,0,0,,,,,,,,,,,,,,,,,,,,,0,3,3,5,,,,,,,,,,,,,,,,,,,,,,,,d,1,0.45250965643208474,123,A,1,2019_Jun_30_2030,PM,3.0.6,59.708482119627824,
,,,,,d,PM_list_1.xlsx,PM_images_list_1.xlsx,cue words.xlsx,cue images.xlsx,recog_task.xlsx,recog_task_images1.xlsx,,,,,,Pictures/2151.jpg,PosL2,,,,,,,,,,,,,,,,,,,,,,,,,0,0,0,0,,,,,,,,,,,,,,,,,,,,,0,4,4,7,,,,,,,,,,,,,,,,,,,,,,,,d,1,0.4528615470044315,123,A,1,2019_Jun_30_2030,PM,3.0.6,59.708482119627824,
,,,,,d,PM_list_1.xlsx,PM_images_list_1.xlsx,cue words.xlsx,cue images.xlsx,recog_task.xlsx,recog_task_images1.xlsx,,,,,,Pictures/7042.jpg,NeuL2,,,,,,,,,,,,,,,,,,,,,,,,,0,0,0,0,,,,,,,,,,,,,,,,,,,,,0,5,5,11,,,,,,,,,,,,,,,,,,,,,,,,d,1,0.4200598110910505,123,A,1,2019_Jun_30_2030,PM,3.0.6,59.708482119627824,
,,,,,l,PM_list_1.xlsx,PM_images_list_1.xlsx,cue words.xlsx,cue images.xlsx,recog_task.xlsx,recog_task_images1.xlsx,,,,,,Pictures/2456.jpg,None,,,,,,,,,,,,,,,,,,,,,,,,,0,0,0,0,,,,,,,,,,,,,,,,,,,,,0,6,6,1,,,,,,,,,,,,,,,,,,,,,,,,l,1,0.5184804074233398,123,A,1,2019_Jun_30_2030,PM,3.0.6,59.708482119627824,
,,,,,l,PM_list_1.xlsx,PM_images_list_1.xlsx,cue words.xlsx,cue images.xlsx,recog_task.xlsx,recog_task_images1.xlsx,,,,,,Pictures/5395.jpg,None,,,,,,,,,,,,,,,,,,,,,,,,,0,0,0,0,,,,,,,,,,,,,,,,,,,,,0,7,7,2,,,,,,,,,,,,,,,,,,,,,,,,l,1,0.5026248160284013,123,A,1,2019_Jun_30_2030,PM,3.0.6,59.708482119627824,
,,,,,l,PM_list_1.xlsx,PM_images_list_1.xlsx,cue words.xlsx,cue images.xlsx,recog_task.xlsx,recog_task_images1.xlsx,,,,,,Pictures/5920.jpg,None,,,,,,,,,,,,,,,,,,,,,,,,,0,0,0,0,,,,,,,,,,,,,,,,,,,,,0,8,8,9,,,,,,,,,,,,,,,,,,,,,,,,l,1,0.48650043341331184,123,A,1,2019_Jun_30_2030,PM,3.0.6,59.708482119627824,
,,,,,l,PM_list_1.xlsx,PM_images_list_1.xlsx,cue words.xlsx,cue images.xlsx,recog_task.xlsx,recog_task_images1.xlsx,,,,,,Pictures/1460.jpg,None,,,,,,,,,,,,,,,,,,,,,,,,,0,0,0,0,,,,,,,,,,,,,,,,,,,,,0,9,9,4,,,,,,,,,,,,,,,,,,,,,,,,l,1,0.4352536842925474,123,A,1,2019_Jun_30_2030,PM,3.0.6,59.708482119627824,
,,,,,l,PM_list_1.xlsx,PM_images_list_1.xlsx,cue words.xlsx,cue images.xlsx,recog_task.xlsx,recog_task_images1.xlsx,,,,,,Pictures/7650.jpg,None,,,,,,,,,,,,,,,,,,,,,,,,,0,0,0,0,,,,,,,,,,,,,,,,,,,,,0,10,10,10,,,,,,,,,,,,,,,,,,,,,,,,l,1,0.4357153482269496,123,A,1,2019_Jun_30_2030,PM,3.0.6,59.708482119627824,
,,,,,d,PM_list_1.xlsx,PM_images_list_1.xlsx,cue words.xlsx,cue images.xlsx,recog_task.xlsx,recog_task_images1.xlsx,,,,,,Pictures/9909.jpg,NegH2,,,,,,,,,,,,,,,,,,,,,,,,,0,0,0,0,,,,,,,,,,,,,,,,,,,,,0,11,11,8,,,,,,,,,,,,,,,,,,,,,,,,d,1,0.687243199441582,123,A,1,2019_Jun_30_2030,PM,3.0.6,59.708482119627824,
,,,,,,PM_list_2.xlsx,PM_images_list_2.xlsx,cue words2.xlsx,cue images2.xlsx,recog_task2.xlsx,recog_task_images2.xlsx,Pictures/2230.jpg,,,,,,,,,,,,,,,,,,,,,,,,,,,,,,,0,1,1,1,0,0,0,0,,,,,,,,,,,,,,,,,,,,,,,,,,,,,,,,,,,,,,,,,,,,,,,123,A,1,2019_Jun_30_2030,PM,3.0.6,59.708482119627824,
,,,,,,PM_list_2.xlsx,PM_images_list_2.xlsx,cue words2.xlsx,cue images2.xlsx,recog_task2.xlsx,recog_task_images2.xlsx,Pictures/4625.jpg,,,,,,,,,,,,,,,,,,,,,,,,,,,,,,,0,1,1,1,0,1,1,1,,,,,,,,,,,,,,,,,,,,,,,,,,,,,,,,,,,,,,,,,,,,,,,123,A,1,2019_Jun_30_2030,PM,3.0.6,59.708482119627824,
,,,,,,PM_list_2.xlsx,PM_images_list_2.xlsx,cue words2.xlsx,cue images2.xlsx,recog_task2.xlsx,recog_task_images2.xlsx,Pictures/3550.jpg,,,,,,,,,,,,,,,,,,,,,,,,,,,,,,,0,1,1,1,0,2,2,5,,,,,,,,,,,,,,,,,,,,,,,,,,,,,,,,,,,,,,,,,,,,,,,123,A,1,2019_Jun_30_2030,PM,3.0.6,59.708482119627824,
,,,,,,PM_list_2.xlsx,PM_images_list_2.xlsx,cue words2.xlsx,cue images2.xlsx,recog_task2.xlsx,recog_task_images2.xlsx,Pictures/2722.jpg,,,,,,,,,,,,,,,,,,,,,,,,,,,,,,,0,1,1,1,0,3,3,4,,,,,,,,,,,,,,,,,,,,,,,,,,,,,,,,,,,,,,,,,,,,,,,123,A,1,2019_Jun_30_2030,PM,3.0.6,59.708482119627824,
,,,,,,PM_list_2.xlsx,PM_images_list_2.xlsx,cue words2.xlsx,cue images2.xlsx,recog_task2.xlsx,recog_task_images2.xlsx,Pictures/5594.jpg,,,,,,,,,,,,,,,,,,,,,,,,,,,,,,,0,1,1,1,0,4,4,2,,,,,,,,,,,,,,,,,,,,,,,,,,,,,,,,,,,,,,,,,,,,,,,123,A,1,2019_Jun_30_2030,PM,3.0.6,59.708482119627824,
,,,,,,PM_list_2.xlsx,PM_images_list_2.xlsx,cue words2.xlsx,cue images2.xlsx,recog_task2.xlsx,recog_task_images2.xlsx,Pictures/6900.jpg,,,,,,,,,,,,,,,,,,,,,,,,,,,,,,,0,1,1,1,0,5,5,3,,,,,,,,,,,,,,,,,,,,,,,,,,,,,,,,,,,,,,,,,,,,,,,123,A,1,2019_Jun_30_2030,PM,3.0.6,59.708482119627824,
,,,,,,PM_list_2.xlsx,PM_images_list_2.xlsx,cue words2.xlsx,cue images2.xlsx,recog_task2.xlsx,recog_task_images2.xlsx,Pictures/4625.jpg,,,,,,,,,,,,,,,,,,,,,,,,,,,,,,,0,1,1,1,,,,,0,0,0,1,,,,,,,,,,,,,,,,,,,,,,,,,,,,,,,,,,,,,,,,,,,123,A,1,2019_Jun_30_2030,PM,3.0.6,59.708482119627824,
,,,,,,PM_list_2.xlsx,PM_images_list_2.xlsx,cue words2.xlsx,cue images2.xlsx,recog_task2.xlsx,recog_task_images2.xlsx,Pictures/2230.jpg,,,,,,,,,,,,,,,,,,,,,,,,,,,,,,,0,1,1,1,,,,,0,1,1,0,,,,,,,,,,,,,,,,,,,,,,,,,,,,,,,,,,,,,,,,,,,123,A,1,2019_Jun_30_2030,PM,3.0.6,59.708482119627824,
,,,,,,PM_list_2.xlsx,PM_images_list_2.xlsx,cue words2.xlsx,cue images2.xlsx,recog_task2.xlsx,recog_task_images2.xlsx,Pictures/6900.jpg,,,,,,,,,,,,,,,,,,,,,,,,,,,,,,,0,1,1,1,,,,,0,2,2,3,,,,,,,,,,,,,,,,,,,,,,,,,,,,,,,,,,,,,,,,,,,123,A,1,2019_Jun_30_2030,PM,3.0.6,59.708482119627824,
,,,,,,PM_list_2.xlsx,PM_images_list_2.xlsx,cue words2.xlsx,cue images2.xlsx,recog_task2.xlsx,recog_task_images2.xlsx,Pictures/2722.jpg,,,,,,,,,,,,,,,,,,,,,,,,,,,,,,,0,1,1,1,,,,,0,3,3,4,,,,,,,,,,,,,,,,,,,,,,,,,,,,,,,,,,,,,,,,,,,123,A,1,2019_Jun_30_2030,PM,3.0.6,59.708482119627824,
,,,,,,PM_list_2.xlsx,PM_images_list_2.xlsx,cue words2.xlsx,cue images2.xlsx,recog_task2.xlsx,recog_task_images2.xlsx,Pictures/5594.jpg,,,,,,,,,,,,,,,,,,,,,,,,,,,,,,,0,1,1,1,,,,,0,4,4,2,,,,,,,,,,,,,,,,,,,,,,,,,,,,,,,,,,,,,,,,,,,123,A,1,2019_Jun_30_2030,PM,3.0.6,59.708482119627824,
,,,,,,PM_list_2.xlsx,PM_images_list_2.xlsx,cue words2.xlsx,cue images2.xlsx,recog_task2.xlsx,recog_task_images2.xlsx,Pictures/3550.jpg,,,,,,,,,,,,,,,,,,,,,,,,,,,,,,,0,1,1,1,,,,,0,5,5,5,,,,,,,,,,,,,,,,,,,,,,,,,,,,,,,,,,,,,,,,,,,123,A,1,2019_Jun_30_2030,PM,3.0.6,59.708482119627824,
,,,,,,PM_list_2.xlsx,PM_images_list_2.xlsx,cue words2.xlsx,cue images2.xlsx,recog_task2.xlsx,recog_task_images2.xlsx,,,,,,,,,,,,,,,,,,,,,,,,,,,,,,,,0,1,1,1,,,,,,,,,0,0,0,0,,,,,,,,,,,,,,,,,,,,,,,,,,,,,,,,,,,,,,,123,A,1,2019_Jun_30_2030,PM,3.0.6,59.708482119627824,
,,,Pictures/2332.jpg,,,PM_list_2.xlsx,PM_images_list_2.xlsx,cue words2.xlsx,cue images2.xlsx,recog_task2.xlsx,recog_task_images2.xlsx,Pictures/2230.jpg,l,0,NoHit,1,,,,,,,,,,,,,,,,,,,,,,,,,,,0,1,1,1,,,,,,,,,,,,,,,,,0,0,0,0,,,,,,,,,,,,,,,,,,,,,,,['l'],[0.41913956101052463],0.41913956101052463,1,[],,,,123,A,1,2019_Jun_30_2030,PM,3.0.6,59.708482119627824,
,,,Pictures/9331.jpg,,,PM_list_2.xlsx,PM_images_list_2.xlsx,cue words2.xlsx,cue images2.xlsx,recog_task2.xlsx,recog_task_images2.xlsx,Pictures/4625.jpg,l,0,NoHit,1,,,,,,,,,,,,,,,,,,,,,,,,,,,0,1,1,1,,,,,,,,,,,,,,,,,0,1,1,1,,,,,,,,,,,,,,,,,,,,,,,['l'],[0.402347304741852],0.402347304741852,1,[],,,,123,A,1,2019_Jun_30_2030,PM,3.0.6,59.708482119627824,
,,,Pictures/2487.jpg,,,PM_list_2.xlsx,PM_images_list_2.xlsx,cue words2.xlsx,cue images2.xlsx,recog_task2.xlsx,recog_task_images2.xlsx,Pictures/5594.jpg,l,0,NoHit,1,,,,,,,,,,,,,,,,,,,,,,,,,,,0,1,1,1,,,,,,,,,,,,,,,,,0,2,2,2,,,,,,,,,,,,,,,,,,,,,,,['l'],[0.5025899346219376],0.5025899346219376,1,[],,,,123,A,1,2019_Jun_30_2030,PM,3.0.6,59.708482119627824,
,,,Pictures/9331.jpg,,,PM_list_2.xlsx,PM_images_list_2.xlsx,cue words2.xlsx,cue images2.xlsx,recog_task2.xlsx,recog_task_images2.xlsx,Pictures/6900.jpg,d,1,Hit,1,,,,,,,,,,,,,,,,,,,,,,,,,,,0,1,1,1,,,,,,,,,,,,,,,,,0,3,3,3,,,,,,,,,,,,,,,,,,,,,,,['d'],[0.6859033481450751],0.6859033481450751,1,[],,,,123,A,1,2019_Jun_30_2030,PM,3.0.6,59.708482119627824,
,,,Pictures/5450.jpg,,,PM_list_2.xlsx,PM_images_list_2.xlsx,cue words2.xlsx,cue images2.xlsx,recog_task2.xlsx,recog_task_images2.xlsx,Pictures/2722.jpg,l,0,NoHit,1,,,,,,,,,,,,,,,,,,,,,,,,,,,0,1,1,1,,,,,,,,,,,,,,,,,0,4,4,4,,,,,,,,,,,,,,,,,,,,,,,['l'],[0.3525717246811837],0.3525717246811837,1,[],,,,123,A,1,2019_Jun_30_2030,PM,3.0.6,59.708482119627824,
,,,Pictures/8490.jpg,,,PM_list_2.xlsx,PM_images_list_2.xlsx,cue words2.xlsx,cue images2.xlsx,recog_task2.xlsx,recog_task_images2.xlsx,Pictures/3550.jpg,l,0,NoHit,1,,,,,,,,,,,,,,,,,,,,,,,,,,,0,1,1,1,,,,,,,,,,,,,,,,,0,5,5,5,,,,,,,,,,,,,,,,,,,,,,,['l'],[0.43562506732996553],0.43562506732996553,1,[],,,,123,A,1,2019_Jun_30_2030,PM,3.0.6,59.708482119627824,
,,,Pictures/5450.jpg,,,PM_list_2.xlsx,PM_images_list_2.xlsx,cue words2.xlsx,cue images2.xlsx,recog_task2.xlsx,recog_task_images2.xlsx,None,d,1,Hit,1,,,,,,,,,,,,,,,,,,,,,,,,,,,0,1,1,1,,,,,,,,,,,,,,,,,0,6,6,6,,,,,,,,,,,,,,,,,,,,,,,['d'],[0.6195560845080763],0.6195560845080763,1,[],,,,123,A,1,2019_Jun_30_2030,PM,3.0.6,59.708482119627824,
,,,Pictures/8080.jpg,,,PM_list_2.xlsx,PM_images_list_2.xlsx,cue words2.xlsx,cue images2.xlsx,recog_task2.xlsx,recog_task_images2.xlsx,None,l,0,NoHit,1,,,,,,,,,,,,,,,,,,,,,,,,,,,0,1,1,1,,,,,,,,,,,,,,,,,0,7,7,7,,,,,,,,,,,,,,,,,,,,,,,['l'],[0.38646298728417605],0.38646298728417605,1,[],,,,123,A,1,2019_Jun_30_2030,PM,3.0.6,59.708482119627824,
,,,Pictures/2260.jpg,,,PM_list_2.xlsx,PM_images_list_2.xlsx,cue words2.xlsx,cue images2.xlsx,recog_task2.xlsx,recog_task_images2.xlsx,None,l,0,NoHit,1,,,,,,,,,,,,,,,,,,,,,,,,,,,0,1,1,1,,,,,,,,,,,,,,,,,0,8,8,8,,,,,,,,,,,,,,,,,,,,,,,['l'],[0.4357389444485307],0.4357389444485307,1,[],,,,123,A,1,2019_Jun_30_2030,PM,3.0.6,59.708482119627824,
,,,Pictures/8080.jpg,,,PM_list_2.xlsx,PM_images_list_2.xlsx,cue words2.xlsx,cue images2.xlsx,recog_task2.xlsx,recog_task_images2.xlsx,None,d,1,Hit,1,,,,,,,,,,,,,,,,,,,,,,,,,,,0,1,1,1,,,,,,,,,,,,,,,,,0,9,9,9,,,,,,,,,,,,,,,,,,,,,,,['d'],[0.38551401149015874],0.38551401149015874,1,[],,,,123,A,1,2019_Jun_30_2030,PM,3.0.6,59.708482119627824,
,,,Pictures/2230.jpg,,,PM_list_2.xlsx,PM_images_list_2.xlsx,cue words2.xlsx,cue images2.xlsx,recog_task2.xlsx,recog_task_images2.xlsx,None,h,3,NeuL2,2,,,,,,,,,,,,,,,,,,,,,,,,,,,0,1,1,1,,,,,,,,,,,,,,,,,0,10,10,10,,,,,,,,,,,,,,,,,,,,,,,"['l', 'h']","[0.41990797501057386, 1.0209903203649446]",0.41990797501057386,0,1,,,,123,A,1,2019_Jun_30_2030,PM,3.0.6,59.708482119627824,
,,,Pictures/1726.jpg,,,PM_list_2.xlsx,PM_images_list_2.xlsx,cue words2.xlsx,cue images2.xlsx,recog_task2.xlsx,recog_task_images2.xlsx,None,l,0,NoHit,1,,,,,,,,,,,,,,,,,,,,,,,,,,,0,1,1,1,,,,,,,,,,,,,,,,,0,11,11,11,,,,,,,,,,,,,,,,,,,,,,,['l'],[0.5861080191098154],0.5861080191098154,1,[],,,,123,A,1,2019_Jun_30_2030,PM,3.0.6,59.708482119627824,
,,,Pictures/9220.jpg,,,PM_list_2.xlsx,PM_images_list_2.xlsx,cue words2.xlsx,cue images2.xlsx,recog_task2.xlsx,recog_task_images2.xlsx,None,l,0,NoHit,1,,,,,,,,,,,,,,,,,,,,,,,,,,,0,1,1,1,,,,,,,,,,,,,,,,,0,12,12,12,,,,,,,,,,,,,,,,,,,,,,,['l'],[0.503148035146296],0.503148035146296,1,[],,,,123,A,1,2019_Jun_30_2030,PM,3.0.6,59.708482119627824,
,,,Pictures/2683.jpg,,,PM_list_2.xlsx,PM_images_list_2.xlsx,cue words2.xlsx,cue images2.xlsx,recog_task2.xlsx,recog_task_images2.xlsx,None,l,0,NoHit,1,,,,,,,,,,,,,,,,,,,,,,,,,,,0,1,1,1,,,,,,,,,,,,,,,,,0,13,13,13,,,,,,,,,,,,,,,,,,,,,,,['l'],[0.5857530508656055],0.5857530508656055,1,[],,,,123,A,1,2019_Jun_30_2030,PM,3.0.6,59.708482119627824,
,,,Pictures/9220.jpg,,,PM_list_2.xlsx,PM_images_list_2.xlsx,cue words2.xlsx,cue images2.xlsx,recog_task2.xlsx,recog_task_images2.xlsx,None,d,1,Hit,1,,,,,,,,,,,,,,,,,,,,,,,,,,,0,1,1,1,,,,,,,,,,,,,,,,,0,14,14,14,,,,,,,,,,,,,,,,,,,,,,,['d'],[0.5530867364723235],0.5530867364723235,1,[],,,,123,A,1,2019_Jun_30_2030,PM,3.0.6,59.708482119627824,
,,,Pictures/8001.jpg,,,PM_list_2.xlsx,PM_images_list_2.xlsx,cue words2.xlsx,cue images2.xlsx,recog_task2.xlsx,recog_task_images2.xlsx,None,l,0,NoHit,1,,,,,,,,,,,,,,,,,,,,,,,,,,,0,1,1,1,,,,,,,,,,,,,,,,,0,15,15,15,,,,,,,,,,,,,,,,,,,,,,,['l'],[0.469256772310473],0.469256772310473,1,[],,,,123,A,1,2019_Jun_30_2030,PM,3.0.6,59.708482119627824,
,,,Pictures/1230.jpg,,,PM_list_2.xlsx,PM_images_list_2.xlsx,cue words2.xlsx,cue images2.xlsx,recog_task2.xlsx,recog_task_images2.xlsx,None,l,0,NoHit,1,,,,,,,,,,,,,,,,,,,,,,,,,,,0,1,1,1,,,,,,,,,,,,,,,,,0,16,16,16,,,,,,,,,,,,,,,,,,,,,,,['l'],[0.5360626220935956],0.5360626220935956,1,[],,,,123,A,1,2019_Jun_30_2030,PM,3.0.6,59.708482119627824,
,,,Pictures/8001.jpg,,,PM_list_2.xlsx,PM_images_list_2.xlsx,cue words2.xlsx,cue images2.xlsx,recog_task2.xlsx,recog_task_images2.xlsx,None,d,1,Hit,1,,,,,,,,,,,,,,,,,,,,,,,,,,,0,1,1,1,,,,,,,,,,,,,,,,,0,17,17,17,,,,,,,,,,,,,,,,,,,,,,,['d'],[0.48582024860661477],0.48582024860661477,1,[],,,,123,A,1,2019_Jun_30_2030,PM,3.0.6,59.708482119627824,
,,,Pictures/7640.jpg,,,PM_list_2.xlsx,PM_images_list_2.xlsx,cue words2.xlsx,cue images2.xlsx,recog_task2.xlsx,recog_task_images2.xlsx,None,l,0,NoHit,1,,,,,,,,,,,,,,,,,,,,,,,,,,,0,1,1,1,,,,,,,,,,,,,,,,,0,18,18,18,,,,,,,,,,,,,,,,,,,,,,,['l'],[0.3849671962670982],0.3849671962670982,1,[],,,,123,A,1,2019_Jun_30_2030,PM,3.0.6,59.708482119627824,
,,,Pictures/3211.jpg,,,PM_list_2.xlsx,PM_images_list_2.xlsx,cue words2.xlsx,cue images2.xlsx,recog_task2.xlsx,recog_task_images2.xlsx,None,l,0,NoHit,1,,,,,,,,,,,,,,,,,,,,,,,,,,,0,1,1,1,,,,,,,,,,,,,,,,,0,19,19,19,,,,,,,,,,,,,,,,,,,,,,,['l'],[0.4191508460789919],0.4191508460789919,1,[],,,,123,A,1,2019_Jun_30_2030,PM,3.0.6,59.708482119627824,
,,,Pictures/1500.jpg,,,PM_list_2.xlsx,PM_images_list_2.xlsx,cue words2.xlsx,cue images2.xlsx,recog_task2.xlsx,recog_task_images2.xlsx,None,l,0,NoHit,1,,,,,,,,,,,,,,,,,,,,,,,,,,,0,1,1,1,,,,,,,,,,,,,,,,,0,20,20,20,,,,,,,,,,,,,,,,,,,,,,,['l'],[0.6031259777955711],0.6031259777955711,1,[],,,,123,A,1,2019_Jun_30_2030,PM,3.0.6,59.708482119627824,
,,,Pictures/4625.jpg,,,PM_list_2.xlsx,PM_images_list_2.xlsx,cue words2.xlsx,cue images2.xlsx,recog_task2.xlsx,recog_task_images2.xlsx,None,h,7,PosH2,2,,,,,,,,,,,,,,,,,,,,,,,,,,,0,1,1,1,,,,,,,,,,,,,,,,,0,21,21,21,,,,,,,,,,,,,,,,,,,,,,,"['l', 'h']","[0.36903876438736916, 0.9708587462082505]",0.36903876438736916,0,1,,,,123,A,1,2019_Jun_30_2030,PM,3.0.6,59.708482119627824,
,,,Pictures/1500.jpg,,,PM_list_2.xlsx,PM_images_list_2.xlsx,cue words2.xlsx,cue images2.xlsx,recog_task2.xlsx,recog_task_images2.xlsx,None,d,1,Hit,1,,,,,,,,,,,,,,,,,,,,,,,,,,,0,1,1,1,,,,,,,,,,,,,,,,,0,22,22,22,,,,,,,,,,,,,,,,,,,,,,,['d'],[0.5194057872286066],0.5194057872286066,1,[],,,,123,A,1,2019_Jun_30_2030,PM,3.0.6,59.708482119627824,
,,,Pictures/2446.jpg,,,PM_list_2.xlsx,PM_images_list_2.xlsx,cue words2.xlsx,cue images2.xlsx,recog_task2.xlsx,recog_task_images2.xlsx,None,l,0,NoHit,1,,,,,,,,,,,,,,,,,,,,,,,,,,,0,1,1,1,,,,,,,,,,,,,,,,,0,23,23,23,,,,,,,,,,,,,,,,,,,,,,,['l'],[0.3354244999354705],0.3354244999354705,1,[],,,,123,A,1,2019_Jun_30_2030,PM,3.0.6,59.708482119627824,
,,,Pictures/6022.jpg,,,PM_list_2.xlsx,PM_images_list_2.xlsx,cue words2.xlsx,cue images2.xlsx,recog_task2.xlsx,recog_task_images2.xlsx,None,l,0,NoHit,1,,,,,,,,,,,,,,,,,,,,,,,,,,,0,1,1,1,,,,,,,,,,,,,,,,,0,24,24,24,,,,,,,,,,,,,,,,,,,,,,,['l'],[0.43568662251345813],0.43568662251345813,1,[],,,,123,A,1,2019_Jun_30_2030,PM,3.0.6,59.708482119627824,
,,,Pictures/5629.jpg,,,PM_list_2.xlsx,PM_images_list_2.xlsx,cue words2.xlsx,cue images2.xlsx,recog_task2.xlsx,recog_task_images2.xlsx,None,l,0,NoHit,1,,,,,,,,,,,,,,,,,,,,,,,,,,,0,1,1,1,,,,,,,,,,,,,,,,,0,25,25,25,,,,,,,,,,,,,,,,,,,,,,,['l'],[0.40216469089500606],0.40216469089500606,1,[],,,,123,A,1,2019_Jun_30_2030,PM,3.0.6,59.708482119627824,
,,,Pictures/6022.jpg,,,PM_list_2.xlsx,PM_images_list_2.xlsx,cue words2.xlsx,cue images2.xlsx,recog_task2.xlsx,recog_task_images2.xlsx,None,d,1,Hit,1,,,,,,,,,,,,,,,,,,,,,,,,,,,0,1,1,1,,,,,,,,,,,,,,,,,0,26,26,26,,,,,,,,,,,,,,,,,,,,,,,['d'],[0.7359867040067911],0.7359867040067911,1,[],,,,123,A,1,2019_Jun_30_2030,PM,3.0.6,59.708482119627824,
,,,Pictures/8010.jpg,,,PM_list_2.xlsx,PM_images_list_2.xlsx,cue words2.xlsx,cue images2.xlsx,recog_task2.xlsx,recog_task_images2.xlsx,None,l,0,NoHit,1,,,,,,,,,,,,,,,,,,,,,,,,,,,0,1,1,1,,,,,,,,,,,,,,,,,0,27,27,27,,,,,,,,,,,,,,,,,,,,,,,['l'],[0.45242245332337916],0.45242245332337916,1,[],,,,123,A,1,2019_Jun_30_2030,PM,3.0.6,59.708482119627824,
,,,Pictures/8160.jpg,,,PM_list_2.xlsx,PM_images_list_2.xlsx,cue words2.xlsx,cue images2.xlsx,recog_task2.xlsx,recog_task_images2.xlsx,None,l,0,NoHit,1,,,,,,,,,,,,,,,,,,,,,,,,,,,0,1,1,1,,,,,,,,,,,,,,,,,0,28,28,28,,,,,,,,,,,,,,,,,,,,,,,['l'],[0.41876510030124336],0.41876510030124336,1,[],,,,123,A,1,2019_Jun_30_2030,PM,3.0.6,59.708482119627824,
,,,Pictures/5621.jpg,,,PM_list_2.xlsx,PM_images_list_2.xlsx,cue words2.xlsx,cue images2.xlsx,recog_task2.xlsx,recog_task_images2.xlsx,None,l,0,NoHit,1,,,,,,,,,,,,,,,,,,,,,,,,,,,0,1,1,1,,,,,,,,,,,,,,,,,0,29,29,29,,,,,,,,,,,,,,,,,,,,,,,['l'],[0.4530718605965376],0.4530718605965376,1,[],,,,123,A,1,2019_Jun_30_2030,PM,3.0.6,59.708482119627824,
,,,Pictures/8160.jpg,,,PM_list_2.xlsx,PM_images_list_2.xlsx,cue words2.xlsx,cue images2.xlsx,recog_task2.xlsx,recog_task_images2.xlsx,None,d,1,Hit,1,,,,,,,,,,,,,,,,,,,,,,,,,,,0,1,1,1,,,,,,,,,,,,,,,,,0,30,30,30,,,,,,,,,,,,,,,,,,,,,,,['d'],[0.35378333600237966],0.35378333600237966,1,[],,,,123,A,1,2019_Jun_30_2030,PM,3.0.6,59.708482119627824,
,,,Pictures/5594.jpg,,,PM_list_2.xlsx,PM_images_list_2.xlsx,cue words2.xlsx,cue images2.xlsx,recog_task2.xlsx,recog_task_images2.xlsx,None,h,4,PosL2,2,,,,,,,,,,,,,,,,,,,,,,,,,,,0,1,1,1,,,,,,,,,,,,,,,,,0,31,31,31,,,,,,,,,,,,,,,,,,,,,,,['h'],[1.0039179879240692],1.0039179879240692,1,1,,,,123,A,1,2019_Jun_30_2030,PM,3.0.6,59.708482119627824,
,,,Pictures/9905.jpg,,,PM_list_2.xlsx,PM_images_list_2.xlsx,cue words2.xlsx,cue images2.xlsx,recog_task2.xlsx,recog_task_images2.xlsx,None,l,0,NoHit,1,,,,,,,,,,,,,,,,,,,,,,,,,,,0,1,1,1,,,,,,,,,,,,,,,,,0,32,32,32,,,,,,,,,,,,,,,,,,,,,,,['l'],[0.3688017769018188],0.3688017769018188,1,[],,,,123,A,1,2019_Jun_30_2030,PM,3.0.6,59.708482119627824,
,,,Pictures/8499.jpg,,,PM_list_2.xlsx,PM_images_list_2.xlsx,cue words2.xlsx,cue images2.xlsx,recog_task2.xlsx,recog_task_images2.xlsx,None,l,0,NoHit,1,,,,,,,,,,,,,,,,,,,,,,,,,,,0,1,1,1,,,,,,,,,,,,,,,,,0,33,33,33,,,,,,,,,,,,,,,,,,,,,,,['l'],[0.2358343550004065],0.2358343550004065,1,[],,,,123,A,1,2019_Jun_30_2030,PM,3.0.6,59.708482119627824,
,,,Pictures/9031.jpg,,,PM_list_2.xlsx,PM_images_list_2.xlsx,cue words2.xlsx,cue images2.xlsx,recog_task2.xlsx,recog_task_images2.xlsx,None,l,0,NoHit,1,,,,,,,,,,,,,,,,,,,,,,,,,,,0,1,1,1,,,,,,,,,,,,,,,,,0,34,34,34,,,,,,,,,,,,,,,,,,,,,,,['l'],[0.5531380323227495],0.5531380323227495,1,[],,,,123,A,1,2019_Jun_30_2030,PM,3.0.6,59.708482119627824,
,,,Pictures/8499.jpg,,,PM_list_2.xlsx,PM_images_list_2.xlsx,cue words2.xlsx,cue images2.xlsx,recog_task2.xlsx,recog_task_images2.xlsx,None,d,1,Hit,1,,,,,,,,,,,,,,,,,,,,,,,,,,,0,1,1,1,,,,,,,,,,,,,,,,,0,35,35,35,,,,,,,,,,,,,,,,,,,,,,,['d'],[0.33522239385638386],0.33522239385638386,1,[],,,,123,A,1,2019_Jun_30_2030,PM,3.0.6,59.708482119627824,
,,,Pictures/1903.jpg,,,PM_list_2.xlsx,PM_images_list_2.xlsx,cue words2.xlsx,cue images2.xlsx,recog_task2.xlsx,recog_task_images2.xlsx,None,l,0,NoHit,1,,,,,,,,,,,,,,,,,,,,,,,,,,,0,1,1,1,,,,,,,,,,,,,,,,,0,36,36,36,,,,,,,,,,,,,,,,,,,,,,,['l'],[0.33594669320154935],0.33594669320154935,1,[],,,,123,A,1,2019_Jun_30_2030,PM,3.0.6,59.708482119627824,
,,,Pictures/9280.jpg,,,PM_list_2.xlsx,PM_images_list_2.xlsx,cue words2.xlsx,cue images2.xlsx,recog_task2.xlsx,recog_task_images2.xlsx,None,l,0,NoHit,1,,,,,,,,,,,,,,,,,,,,,,,,,,,0,1,1,1,,,,,,,,,,,,,,,,,0,37,37,37,,,,,,,,,,,,,,,,,,,,,,,['l'],[0.36890334298368543],0.36890334298368543,1,[],,,,123,A,1,2019_Jun_30_2030,PM,3.0.6,59.708482119627824,
,,,Pictures/1945.jpg,,,PM_list_2.xlsx,PM_images_list_2.xlsx,cue words2.xlsx,cue images2.xlsx,recog_task2.xlsx,recog_task_images2.xlsx,None,l,0,NoHit,1,,,,,,,,,,,,,,,,,,,,,,,,,,,0,1,1,1,,,,,,,,,,,,,,,,,0,38,38,38,,,,,,,,,,,,,,,,,,,,,,,['l'],[0.5192549769999459],0.5192549769999459,1,[],,,,123,A,1,2019_Jun_30_2030,PM,3.0.6,59.708482119627824,
,,,Pictures/2310.jpg,,,PM_list_2.xlsx,PM_images_list_2.xlsx,cue words2.xlsx,cue images2.xlsx,recog_task2.xlsx,recog_task_images2.xlsx,None,l,0,NoHit,1,,,,,,,,,,,,,,,,,,,,,,,,,,,0,1,1,1,,,,,,,,,,,,,,,,,0,39,39,39,,,,,,,,,,,,,,,,,,,,,,,['l'],[0.5192980656865984],0.5192980656865984,1,[],,,,123,A,1,2019_Jun_30_2030,PM,3.0.6,59.708482119627824,
,,,Pictures/1945.jpg,,,PM_list_2.xlsx,PM_images_list_2.xlsx,cue words2.xlsx,cue images2.xlsx,recog_task2.xlsx,recog_task_images2.xlsx,None,d,1,Hit,1,,,,,,,,,,,,,,,,,,,,,,,,,,,0,1,1,1,,,,,,,,,,,,,,,,,0,40,40,40,,,,,,,,,,,,,,,,,,,,,,,['d'],[0.5863173067336902],0.5863173067336902,1,[],,,,123,A,1,2019_Jun_30_2030,PM,3.0.6,59.708482119627824,
,,,Pictures/1726.jpg,,,PM_list_2.xlsx,PM_images_list_2.xlsx,cue words2.xlsx,cue images2.xlsx,recog_task2.xlsx,recog_task_images2.xlsx,None,l,0,NoHit,1,,,,,,,,,,,,,,,,,,,,,,,,,,,0,1,1,1,,,,,,,,,,,,,,,,,0,41,41,41,,,,,,,,,,,,,,,,,,,,,,,['l'],[0.6539233740186319],0.6539233740186319,1,[],,,,123,A,1,2019_Jun_30_2030,PM,3.0.6,59.708482119627824,
,,,Pictures/6900.jpg,,,PM_list_2.xlsx,PM_images_list_2.xlsx,cue words2.xlsx,cue images2.xlsx,recog_task2.xlsx,recog_task_images2.xlsx,None,h,6,NeuH2,2,,,,,,,,,,,,,,,,,,,,,,,,,,,0,1,1,1,,,,,,,,,,,,,,,,,0,42,42,42,,,,,,,,,,,,,,,,,,,,,,,"['l', 'h']","[0.33587487880140543, 0.9552268052939326]",0.33587487880140543,0,1,,,,123,A,1,2019_Jun_30_2030,PM,3.0.6,59.708482119627824,
,,,Pictures/6212.jpg,,,PM_list_2.xlsx,PM_images_list_2.xlsx,cue words2.xlsx,cue images2.xlsx,recog_task2.xlsx,recog_task_images2.xlsx,None,l,0,NoHit,1,,,,,,,,,,,,,,,,,,,,,,,,,,,0,1,1,1,,,,,,,,,,,,,,,,,0,43,43,43,,,,,,,,,,,,,,,,,,,,,,,['l'],[0.23503208567854017],0.23503208567854017,1,[],,,,123,A,1,2019_Jun_30_2030,PM,3.0.6,59.708482119627824,
,,,Pictures/9031.jpg,,,PM_list_2.xlsx,PM_images_list_2.xlsx,cue words2.xlsx,cue images2.xlsx,recog_task2.xlsx,recog_task_images2.xlsx,None,l,0,NoHit,1,,,,,,,,,,,,,,,,,,,,,,,,,,,0,1,1,1,,,,,,,,,,,,,,,,,0,44,44,44,,,,,,,,,,,,,,,,,,,,,,,['l'],[0.3851426284527406],0.3851426284527406,1,[],,,,123,A,1,2019_Jun_30_2030,PM,3.0.6,59.708482119627824,
,,,Pictures/6212.jpg,,,PM_list_2.xlsx,PM_images_list_2.xlsx,cue words2.xlsx,cue images2.xlsx,recog_task2.xlsx,recog_task_images2.xlsx,None,d,1,Hit,1,,,,,,,,,,,,,,,,,,,,,,,,,,,0,1,1,1,,,,,,,,,,,,,,,,,0,45,45,45,,,,,,,,,,,,,,,,,,,,,,,['d'],[0.3521223716670647],0.3521223716670647,1,[],,,,123,A,1,2019_Jun_30_2030,PM,3.0.6,59.708482119627824,
,,,Pictures/1080.jpg,,,PM_list_2.xlsx,PM_images_list_2.xlsx,cue words2.xlsx,cue images2.xlsx,recog_task2.xlsx,recog_task_images2.xlsx,None,l,0,NoHit,1,,,,,,,,,,,,,,,,,,,,,,,,,,,0,1,1,1,,,,,,,,,,,,,,,,,0,46,46,46,,,,,,,,,,,,,,,,,,,,,,,['l'],[0.41854247567243874],0.41854247567243874,1,[],,,,123,A,1,2019_Jun_30_2030,PM,3.0.6,59.708482119627824,
,,,Pictures/5535.jpg,,,PM_list_2.xlsx,PM_images_list_2.xlsx,cue words2.xlsx,cue images2.xlsx,recog_task2.xlsx,recog_task_images2.xlsx,None,l,0,NoHit,1,,,,,,,,,,,,,,,,,,,,,,,,,,,0,1,1,1,,,,,,,,,,,,,,,,,0,47,47,47,,,,,,,,,,,,,,,,,,,,,,,['l'],[0.35217058996204287],0.35217058996204287,1,[],,,,123,A,1,2019_Jun_30_2030,PM,3.0.6,59.708482119627824,
,,,Pictures/2205.jpg,,,PM_list_2.xlsx,PM_images_list_2.xlsx,cue words2.xlsx,cue images2.xlsx,recog_task2.xlsx,recog_task_images2.xlsx,None,l,0,NoHit,1,,,,,,,,,,,,,,,,,,,,,,,,,,,0,1,1,1,,,,,,,,,,,,,,,,,0,48,48,48,,,,,,,,,,,,,,,,,,,,,,,['l'],[0.5194293833337724],0.5194293833337724,1,[],,,,123,A,1,2019_Jun_30_2030,PM,3.0.6,59.708482119627824,
,,,Pictures/5535.jpg,,,PM_list_2.xlsx,PM_images_list_2.xlsx,cue words2.xlsx,cue images2.xlsx,recog_task2.xlsx,recog_task_images2.xlsx,None,d,1,Hit,1,,,,,,,,,,,,,,,,,,,,,,,,,,,0,1,1,1,,,,,,,,,,,,,,,,,0,49,49,49,,,,,,,,,,,,,,,,,,,,,,,"['l', 'd']","[0.2680769645376131, 0.7202090824721381]",0.2680769645376131,0,[],,,,123,A,1,2019_Jun_30_2030,PM,3.0.6,59.708482119627824,
,,,Pictures/6530.jpg,,,PM_list_2.xlsx,PM_images_list_2.xlsx,cue words2.xlsx,cue images2.xlsx,recog_task2.xlsx,recog_task_images2.xlsx,None,l,0,NoHit,1,,,,,,,,,,,,,,,,,,,,,,,,,,,0,1,1,1,,,,,,,,,,,,,,,,,0,50,50,50,,,,,,,,,,,,,,,,,,,,,,,['l'],[0.4194545183563605],0.4194545183563605,1,[],,,,123,A,1,2019_Jun_30_2030,PM,3.0.6,59.708482119627824,
,,,Pictures/2722.jpg,,,PM_list_2.xlsx,PM_images_list_2.xlsx,cue words2.xlsx,cue images2.xlsx,recog_task2.xlsx,recog_task_images2.xlsx,None,h,2,NegL2,2,,,,,,,,,,,,,,,,,,,,,,,,,,,0,1,1,1,,,,,,,,,,,,,,,,,0,51,51,51,,,,,,,,,,,,,,,,,,,,,,,['h'],[1.0377323067514226],1.0377323067514226,1,1,,,,123,A,1,2019_Jun_30_2030,PM,3.0.6,59.708482119627824,
,,,Pictures/7270.jpg,,,PM_list_2.xlsx,PM_images_list_2.xlsx,cue words2.xlsx,cue images2.xlsx,recog_task2.xlsx,recog_task_images2.xlsx,None,l,0,NoHit,1,,,,,,,,,,,,,,,,,,,,,,,,,,,0,1,1,1,,,,,,,,,,,,,,,,,0,52,52,52,,,,,,,,,,,,,,,,,,,,,,,['l'],[0.4198259013937786],0.4198259013937786,1,[],,,,123,A,1,2019_Jun_30_2030,PM,3.0.6,59.708482119627824,
,,,Pictures/5621.jpg,,,PM_list_2.xlsx,PM_images_list_2.xlsx,cue words2.xlsx,cue images2.xlsx,recog_task2.xlsx,recog_task_images2.xlsx,None,l,0,NoHit,1,,,,,,,,,,,,,,,,,,,,,,,,,,,0,1,1,1,,,,,,,,,,,,,,,,,0,53,53,53,,,,,,,,,,,,,,,,,,,,,,,['l'],[0.35165250033605844],0.35165250033605844,1,[],,,,123,A,1,2019_Jun_30_2030,PM,3.0.6,59.708482119627824,
,,,Pictures/7270.jpg,,,PM_list_2.xlsx,PM_images_list_2.xlsx,cue words2.xlsx,cue images2.xlsx,recog_task2.xlsx,recog_task_images2.xlsx,None,d,1,Hit,1,,,,,,,,,,,,,,,,,,,,,,,,,,,0,1,1,1,,,,,,,,,,,,,,,,,0,54,54,54,,,,,,,,,,,,,,,,,,,,,,,['d'],[0.6196289248764515],0.6196289248764515,1,[],,,,123,A,1,2019_Jun_30_2030,PM,3.0.6,59.708482119627824,
,,,Pictures/2810.jpg,,,PM_list_2.xlsx,PM_images_list_2.xlsx,cue words2.xlsx,cue images2.xlsx,recog_task2.xlsx,recog_task_images2.xlsx,None,l,0,NoHit,1,,,,,,,,,,,,,,,,,,,,,,,,,,,0,1,1,1,,,,,,,,,,,,,,,,,0,55,55,55,,,,,,,,,,,,,,,,,,,,,,,['l'],[0.5867851262446493],0.5867851262446493,1,[],,,,123,A,1,2019_Jun_30_2030,PM,3.0.6,59.708482119627824,
,,,Pictures/7502.jpg,,,PM_list_2.xlsx,PM_images_list_2.xlsx,cue words2.xlsx,cue images2.xlsx,recog_task2.xlsx,recog_task_images2.xlsx,None,l,0,NoHit,1,,,,,,,,,,,,,,,,,,,,,,,,,,,0,1,1,1,,,,,,,,,,,,,,,,,0,56,56,56,,,,,,,,,,,,,,,,,,,,,,,['l'],[0.35276767530012876],0.35276767530012876,1,[],,,,123,A,1,2019_Jun_30_2030,PM,3.0.6,59.708482119627824,
,,,Pictures/1302.jpg,,,PM_list_2.xlsx,PM_images_list_2.xlsx,cue words2.xlsx,cue images2.xlsx,recog_task2.xlsx,recog_task_images2.xlsx,None,l,0,NoHit,1,,,,,,,,,,,,,,,,,,,,,,,,,,,0,1,1,1,,,,,,,,,,,,,,,,,0,57,57,57,,,,,,,,,,,,,,,,,,,,,,,['l'],[0.36941938067320734],0.36941938067320734,1,[],,,,123,A,1,2019_Jun_30_2030,PM,3.0.6,59.708482119627824,
,,,Pictures/2216.jpg,,,PM_list_2.xlsx,PM_images_list_2.xlsx,cue words2.xlsx,cue images2.xlsx,recog_task2.xlsx,recog_task_images2.xlsx,None,l,0,NoHit,1,,,,,,,,,,,,,,,,,,,,,,,,,,,0,1,1,1,,,,,,,,,,,,,,,,,0,58,58,58,,,,,,,,,,,,,,,,,,,,,,,['l'],[0.3354480961570516],0.3354480961570516,1,[],,,,123,A,1,2019_Jun_30_2030,PM,3.0.6,59.708482119627824,
,,,Pictures/1302.jpg,,,PM_list_2.xlsx,PM_images_list_2.xlsx,cue words2.xlsx,cue images2.xlsx,recog_task2.xlsx,recog_task_images2.xlsx,None,d,1,Hit,1,,,,,,,,,,,,,,,,,,,,,,,,,,,0,1,1,1,,,,,,,,,,,,,,,,,0,59,59,59,,,,,,,,,,,,,,,,,,,,,,,['d'],[0.48597311065532267],0.48597311065532267,1,[],,,,123,A,1,2019_Jun_30_2030,PM,3.0.6,59.708482119627824,
,,,Pictures/3550.jpg,,,PM_list_2.xlsx,PM_images_list_2.xlsx,cue words2.xlsx,cue images2.xlsx,recog_task2.xlsx,recog_task_images2.xlsx,None,h,5,NegH2,2,,,,,,,,,,,,,,,,,,,,,,,,,,,0,1,1,1,,,,,,,,,,,,,,,,,0,60,60,60,,,,,,,,,,,,,,,,,,,,,,,"['l', 'h']","[0.4528102510375902, 1.4229539311490953]",0.4528102510375902,0,1,,,,123,A,1,2019_Jun_30_2030,PM,3.0.6,59.708482119627824,
,,,Pictures/8497.jpg,,,PM_list_2.xlsx,PM_images_list_2.xlsx,cue words2.xlsx,cue images2.xlsx,recog_task2.xlsx,recog_task_images2.xlsx,None,l,0,NoHit,1,,,,,,,,,,,,,,,,,,,,,,,,,,,0,1,1,1,,,,,,,,,,,,,,,,,0,61,61,61,,,,,,,,,,,,,,,,,,,,,,,['l'],[0.43610930151771754],0.43610930151771754,1,[],,,,123,A,1,2019_Jun_30_2030,PM,3.0.6,59.708482119627824,
,,,Pictures/1310.jpg,,,PM_list_2.xlsx,PM_images_list_2.xlsx,cue words2.xlsx,cue images2.xlsx,recog_task2.xlsx,recog_task_images2.xlsx,None,l,0,NoHit,1,,,,,,,,,,,,,,,,,,,,,,,,,,,0,1,1,1,,,,,,,,,,,,,,,,,0,62,62,62,,,,,,,,,,,,,,,,,,,,,,,['l'],[0.25243784207850695],0.25243784207850695,1,[],,,,123,A,1,2019_Jun_30_2030,PM,3.0.6,59.708482119627824,
,,,Pictures/8497.jpg,,,PM_list_2.xlsx,PM_images_list_2.xlsx,cue words2.xlsx,cue images2.xlsx,recog_task2.xlsx,recog_task_images2.xlsx,None,d,1,Hit,1,,,,,,,,,,,,,,,,,,,,,,,,,,,0,1,1,1,,,,,,,,,,,,,,,,,0,63,63,63,,,,,,,,,,,,,,,,,,,,,,,"['l', 'd']","[0.28505388647317886, 0.6195889138616621]",0.28505388647317886,0,[],,,,123,A,1,2019_Jun_30_2030,PM,3.0.6,59.708482119627824,
,,,Pictures/2276.jpg,,,PM_list_2.xlsx,PM_images_list_2.xlsx,cue words2.xlsx,cue images2.xlsx,recog_task2.xlsx,recog_task_images2.xlsx,None,l,0,NoHit,1,,,,,,,,,,,,,,,,,,,,,,,,,,,0,1,1,1,,,,,,,,,,,,,,,,,0,64,64,64,,,,,,,,,,,,,,,,,,,,,,,['l'],[0.36956506117712706],0.36956506117712706,1,[],,,,123,A,1,2019_Jun_30_2030,PM,3.0.6,59.708482119627824,
,,,Pictures/9440.jpg,,,PM_list_2.xlsx,PM_images_list_2.xlsx,cue words2.xlsx,cue images2.xlsx,recog_task2.xlsx,recog_task_images2.xlsx,None,l,0,NoHit,1,,,,,,,,,,,,,,,,,,,,,,,,,,,0,1,1,1,,,,,,,,,,,,,,,,,0,65,65,65,,,,,,,,,,,,,,,,,,,,,,,['l'],[0.36894130194559693],0.36894130194559693,1,[],,,,123,A,1,2019_Jun_30_2030,PM,3.0.6,59.708482119627824,
,,,Pictures/2276.jpg,,,PM_list_2.xlsx,PM_images_list_2.xlsx,cue words2.xlsx,cue images2.xlsx,recog_task2.xlsx,recog_task_images2.xlsx,None,d,1,Hit,1,,,,,,,,,,,,,,,,,,,,,,,,,,,0,1,1,1,,,,,,,,,,,,,,,,,0,66,66,66,,,,,,,,,,,,,,,,,,,,,,,['d'],[0.6191785460105166],0.6191785460105166,1,[],,,,123,A,1,2019_Jun_30_2030,PM,3.0.6,59.708482119627824,
,,,Pictures/7640.jpg,,,PM_list_2.xlsx,PM_images_list_2.xlsx,cue words2.xlsx,cue images2.xlsx,recog_task2.xlsx,recog_task_images2.xlsx,None,l,0,NoHit,1,,,,,,,,,,,,,,,,,,,,,,,,,,,0,1,1,1,,,,,,,,,,,,,,,,,0,67,67,67,,,,,,,,,,,,,,,,,,,,,,,['l'],[0.3688725653337315],0.3688725653337315,1,[],,,,123,A,1,2019_Jun_30_2030,PM,3.0.6,59.708482119627824,
,,,Pictures/8475.jpg,,,PM_list_2.xlsx,PM_images_list_2.xlsx,cue words2.xlsx,cue images2.xlsx,recog_task2.xlsx,recog_task_images2.xlsx,None,l,0,NoHit,1,,,,,,,,,,,,,,,,,,,,,,,,,,,0,1,1,1,,,,,,,,,,,,,,,,,0,68,68,68,,,,,,,,,,,,,,,,,,,,,,,['l'],[0.30204106750898063],0.30204106750898063,1,[],,,,123,A,1,2019_Jun_30_2030,PM,3.0.6,59.708482119627824,
,,,Pictures/3310.jpg,,,PM_list_2.xlsx,PM_images_list_2.xlsx,cue words2.xlsx,cue images2.xlsx,recog_task2.xlsx,recog_task_images2.xlsx,None,l,0,NoHit,1,,,,,,,,,,,,,,,,,,,,,,,,,,,0,1,1,1,,,,,,,,,,,,,,,,,0,69,69,69,,,,,,,,,,,,,,,,,,,,,,,['l'],[0.41843988362234086],0.41843988362234086,1,[],,,,123,A,1,2019_Jun_30_2030,PM,3.0.6,59.708482119627824,
,,,Pictures/2722.jpg,,,PM_list_2.xlsx,PM_images_list_2.xlsx,cue words2.xlsx,cue images2.xlsx,recog_task2.xlsx,recog_task_images2.xlsx,None,h,2,NegL2,2,,,,,,,,,,,,,,,,,,,,,,,,,,,0,1,1,1,,,,,,,,,,,,,,,,,0,70,70,70,,,,,,,,,,,,,,,,,,,,,,,"['d', 'h']","[0.5863716804888099, 1.0544188932981342]",0.5863716804888099,0,1,,,,123,A,1,2019_Jun_30_2030,PM,3.0.6,59.708482119627824,
,,,Pictures/3310.jpg,,,PM_list_2.xlsx,PM_images_list_2.xlsx,cue words2.xlsx,cue images2.xlsx,recog_task2.xlsx,recog_task_images2.xlsx,None,d,1,Hit,1,,,,,,,,,,,,,,,,,,,,,,,,,,,0,1,1,1,,,,,,,,,,,,,,,,,0,71,71,71,,,,,,,,,,,,,,,,,,,,,,,['d'],[0.6699800458736718],0.6699800458736718,1,[],,,,123,A,1,2019_Jun_30_2030,PM,3.0.6,59.708482119627824,
,,,Pictures/7365.jpg,,,PM_list_2.xlsx,PM_images_list_2.xlsx,cue words2.xlsx,cue images2.xlsx,recog_task2.xlsx,recog_task_images2.xlsx,None,l,0,NoHit,1,,,,,,,,,,,,,,,,,,,,,,,,,,,0,1,1,1,,,,,,,,,,,,,,,,,0,72,72,72,,,,,,,,,,,,,,,,,,,,,,,['l'],[0.3520382463466376],0.3520382463466376,1,[],,,,123,A,1,2019_Jun_30_2030,PM,3.0.6,59.708482119627824,
,,,Pictures/2683.jpg,,,PM_list_2.xlsx,PM_images_list_2.xlsx,cue words2.xlsx,cue images2.xlsx,recog_task2.xlsx,recog_task_images2.xlsx,None,l,0,NoHit,1,,,,,,,,,,,,,,,,,,,,,,,,,,,0,1,1,1,,,,,,,,,,,,,,,,,0,73,73,73,,,,,,,,,,,,,,,,,,,,,,,['l'],[0.40247041499242187],0.40247041499242187,1,[],,,,123,A,1,2019_Jun_30_2030,PM,3.0.6,59.708482119627824,
,,,Pictures/2660.jpg,,,PM_list_2.xlsx,PM_images_list_2.xlsx,cue words2.xlsx,cue images2.xlsx,recog_task2.xlsx,recog_task_images2.xlsx,None,l,0,NoHit,1,,,,,,,,,,,,,,,,,,,,,,,,,,,0,1,1,1,,,,,,,,,,,,,,,,,0,74,74,74,,,,,,,,,,,,,,,,,,,,,,,['l'],[0.352738949470222],0.352738949470222,1,[],,,,123,A,1,2019_Jun_30_2030,PM,3.0.6,59.708482119627824,
,,,Pictures/6243.jpg,,,PM_list_2.xlsx,PM_images_list_2.xlsx,cue words2.xlsx,cue images2.xlsx,recog_task2.xlsx,recog_task_images2.xlsx,None,l,0,NoHit,1,,,,,,,,,,,,,,,,,,,,,,,,,,,0,1,1,1,,,,,,,,,,,,,,,,,0,75,75,75,,,,,,,,,,,,,,,,,,,,,,,['l'],[0.3033973335986957],0.3033973335986957,1,[],,,,123,A,1,2019_Jun_30_2030,PM,3.0.6,59.708482119627824,
,,,Pictures/2660.jpg,,,PM_list_2.xlsx,PM_images_list_2.xlsx,cue words2.xlsx,cue images2.xlsx,recog_task2.xlsx,recog_task_images2.xlsx,None,d,1,Hit,1,,,,,,,,,,,,,,,,,,,,,,,,,,,0,1,1,1,,,,,,,,,,,,,,,,,0,76,76,76,,,,,,,,,,,,,,,,,,,,,,,['d'],[0.6029443899169564],0.6029443899169564,1,[],,,,123,A,1,2019_Jun_30_2030,PM,3.0.6,59.708482119627824,
,,,Pictures/9440.jpg,,,PM_list_2.xlsx,PM_images_list_2.xlsx,cue words2.xlsx,cue images2.xlsx,recog_task2.xlsx,recog_task_images2.xlsx,None,l,0,NoHit,1,,,,,,,,,,,,,,,,,,,,,,,,,,,0,1,1,1,,,,,,,,,,,,,,,,,0,77,77,77,,,,,,,,,,,,,,,,,,,,,,,['l'],[0.4039887763792649],0.4039887763792649,1,[],,,,123,A,1,2019_Jun_30_2030,PM,3.0.6,59.708482119627824,
,,,Pictures/1080.jpg,,,PM_list_2.xlsx,PM_images_list_2.xlsx,cue words2.xlsx,cue images2.xlsx,recog_task2.xlsx,recog_task_images2.xlsx,None,l,0,NoHit,1,,,,,,,,,,,,,,,,,,,,,,,,,,,0,1,1,1,,,,,,,,,,,,,,,,,0,78,78,78,,,,,,,,,,,,,,,,,,,,,,,['l'],[0.5365991782164201],0.5365991782164201,1,[],,,,123,A,1,2019_Jun_30_2030,PM,3.0.6,59.708482119627824,
,,,Pictures/1630.jpg,,,PM_list_2.xlsx,PM_images_list_2.xlsx,cue words2.xlsx,cue images2.xlsx,recog_task2.xlsx,recog_task_images2.xlsx,None,l,0,NoHit,1,,,,,,,,,,,,,,,,,,,,,,,,,,,0,1,1,1,,,,,,,,,,,,,,,,,0,79,79,79,,,,,,,,,,,,,,,,,,,,,,,['l'],[0.3188066501170397],0.3188066501170397,1,[],,,,123,A,1,2019_Jun_30_2030,PM,3.0.6,59.708482119627824,
,,,Pictures/2395.jpg,,,PM_list_2.xlsx,PM_images_list_2.xlsx,cue words2.xlsx,cue images2.xlsx,recog_task2.xlsx,recog_task_images2.xlsx,None,l,0,NoHit,1,,,,,,,,,,,,,,,,,,,,,,,,,,,0,1,1,1,,,,,,,,,,,,,,,,,0,80,80,80,,,,,,,,,,,,,,,,,,,,,,,['l'],[0.38562891457695514],0.38562891457695514,1,[],,,,123,A,1,2019_Jun_30_2030,PM,3.0.6,59.708482119627824,
,,,Pictures/1630.jpg,,,PM_list_2.xlsx,PM_images_list_2.xlsx,cue words2.xlsx,cue images2.xlsx,recog_task2.xlsx,recog_task_images2.xlsx,None,d,1,Hit,1,,,,,,,,,,,,,,,,,,,,,,,,,,,0,1,1,1,,,,,,,,,,,,,,,,,0,81,81,81,,,,,,,,,,,,,,,,,,,,,,,['d'],[0.30215186695568264],0.30215186695568264,1,[],,,,123,A,1,2019_Jun_30_2030,PM,3.0.6,59.708482119627824,
,,,Pictures/5594.jpg,,,PM_list_2.xlsx,PM_images_list_2.xlsx,cue words2.xlsx,cue images2.xlsx,recog_task2.xlsx,recog_task_images2.xlsx,None,h,4,PosL2,2,,,,,,,,,,,,,,,,,,,,,,,,,,,0,1,1,1,,,,,,,,,,,,,,,,,0,82,82,82,,,,,,,,,,,,,,,,,,,,,,,['h'],[0.8871621517464519],0.8871621517464519,1,1,,,,123,A,1,2019_Jun_30_2030,PM,3.0.6,59.708482119627824,
,,,Pictures/7046.jpg,,,PM_list_2.xlsx,PM_images_list_2.xlsx,cue words2.xlsx,cue images2.xlsx,recog_task2.xlsx,recog_task_images2.xlsx,None,l,0,NoHit,1,,,,,,,,,,,,,,,,,,,,,,,,,,,0,1,1,1,,,,,,,,,,,,,,,,,0,83,83,83,,,,,,,,,,,,,,,,,,,,,,,['l'],[0.4191908569773659],0.4191908569773659,1,[],,,,123,A,1,2019_Jun_30_2030,PM,3.0.6,59.708482119627824,
,,,Pictures/9905.jpg,,,PM_list_2.xlsx,PM_images_list_2.xlsx,cue words2.xlsx,cue images2.xlsx,recog_task2.xlsx,recog_task_images2.xlsx,None,l,0,NoHit,1,,,,,,,,,,,,,,,,,,,,,,,,,,,0,1,1,1,,,,,,,,,,,,,,,,,0,84,84,84,,,,,,,,,,,,,,,,,,,,,,,['l'],[0.3021077523007989],0.3021077523007989,1,[],,,,123,A,1,2019_Jun_30_2030,PM,3.0.6,59.708482119627824,
,,,Pictures/7046.jpg,,,PM_list_2.xlsx,PM_images_list_2.xlsx,cue words2.xlsx,cue images2.xlsx,recog_task2.xlsx,recog_task_images2.xlsx,None,d,1,Hit,1,,,,,,,,,,,,,,,,,,,,,,,,,,,0,1,1,1,,,,,,,,,,,,,,,,,0,85,85,85,,,,,,,,,,,,,,,,,,,,,,,"['l', 'd']","[0.3187656132504344, 0.8377005031798035]",0.3187656132504344,0,[],,,,123,A,1,2019_Jun_30_2030,PM,3.0.6,59.708482119627824,
,,,Pictures/7365.jpg,,,PM_list_2.xlsx,PM_images_list_2.xlsx,cue words2.xlsx,cue images2.xlsx,recog_task2.xlsx,recog_task_images2.xlsx,None,l,0,NoHit,1,,,,,,,,,,,,,,,,,,,,,,,,,,,0,1,1,1,,,,,,,,,,,,,,,,,0,86,86,86,,,,,,,,,,,,,,,,,,,,,,,['l'],[0.33483767381403595],0.33483767381403595,1,[],,,,123,A,1,2019_Jun_30_2030,PM,3.0.6,59.708482119627824,
,,,Pictures/2156.jpg,,,PM_list_2.xlsx,PM_images_list_2.xlsx,cue words2.xlsx,cue images2.xlsx,recog_task2.xlsx,recog_task_images2.xlsx,None,l,0,NoHit,1,,,,,,,,,,,,,,,,,,,,,,,,,,,0,1,1,1,,,,,,,,,,,,,,,,,0,87,87,87,,,,,,,,,,,,,,,,,,,,,,,['l'],[0.3688869281904772],0.3688869281904772,1,[],,,,123,A,1,2019_Jun_30_2030,PM,3.0.6,59.708482119627824,
,,,Pictures/2446.jpg,,,PM_list_2.xlsx,PM_images_list_2.xlsx,cue words2.xlsx,cue images2.xlsx,recog_task2.xlsx,recog_task_images2.xlsx,None,l,0,NoHit,1,,,,,,,,,,,,,,,,,,,,,,,,,,,0,1,1,1,,,,,,,,,,,,,,,,,0,88,88,88,,,,,,,,,,,,,,,,,,,,,,,['l'],[0.5034804331371561],0.5034804331371561,1,[],,,,123,A,1,2019_Jun_30_2030,PM,3.0.6,59.708482119627824,
,,,Pictures/2156.jpg,,,PM_list_2.xlsx,PM_images_list_2.xlsx,cue words2.xlsx,cue images2.xlsx,recog_task2.xlsx,recog_task_images2.xlsx,None,d,1,Hit,1,,,,,,,,,,,,,,,,,,,,,,,,,,,0,1,1,1,,,,,,,,,,,,,,,,,0,89,89,89,,,,,,,,,,,,,,,,,,,,,,,['d'],[0.3857458693673834],0.3857458693673834,1,[],,,,123,A,1,2019_Jun_30_2030,PM,3.0.6,59.708482119627824,
,,,Pictures/3211.jpg,,,PM_list_2.xlsx,PM_images_list_2.xlsx,cue words2.xlsx,cue images2.xlsx,recog_task2.xlsx,recog_task_images2.xlsx,None,l,0,NoHit,1,,,,,,,,,,,,,,,,,,,,,,,,,,,0,1,1,1,,,,,,,,,,,,,,,,,0,90,90,90,,,,,,,,,,,,,,,,,,,,,,,['l'],[0.33537730760872364],0.33537730760872364,1,[],,,,123,A,1,2019_Jun_30_2030,PM,3.0.6,59.708482119627824,
,,,Pictures/2216.jpg,,,PM_list_2.xlsx,PM_images_list_2.xlsx,cue words2.xlsx,cue images2.xlsx,recog_task2.xlsx,recog_task_images2.xlsx,None,l,0,NoHit,1,,,,,,,,,,,,,,,,,,,,,,,,,,,0,1,1,1,,,,,,,,,,,,,,,,,0,91,91,91,,,,,,,,,,,,,,,,,,,,,,,['l'],[0.4192790861707181],0.4192790861707181,1,[],,,,123,A,1,2019_Jun_30_2030,PM,3.0.6,59.708482119627824,
,,,Pictures/5940.jpg,,,PM_list_2.xlsx,PM_images_list_2.xlsx,cue words2.xlsx,cue images2.xlsx,recog_task2.xlsx,recog_task_images2.xlsx,None,l,0,NoHit,1,,,,,,,,,,,,,,,,,,,,,,,,,,,0,1,1,1,,,,,,,,,,,,,,,,,0,92,92,92,,,,,,,,,,,,,,,,,,,,,,,['l'],[0.352754338295199],0.352754338295199,1,[],,,,123,A,1,2019_Jun_30_2030,PM,3.0.6,59.708482119627824,
,,,Pictures/2230.jpg,,,PM_list_2.xlsx,PM_images_list_2.xlsx,cue words2.xlsx,cue images2.xlsx,recog_task2.xlsx,recog_task_images2.xlsx,None,h,3,NeuL2,2,,,,,,,,,,,,,,,,,,,,,,,,,,,0,1,1,1,,,,,,,,,,,,,,,,,0,93,93,93,,,,,,,,,,,,,,,,,,,,,,,['h'],[0.9545815016608685],0.9545815016608685,1,1,,,,123,A,1,2019_Jun_30_2030,PM,3.0.6,59.708482119627824,
,,,Pictures/5940.jpg,,,PM_list_2.xlsx,PM_images_list_2.xlsx,cue words2.xlsx,cue images2.xlsx,recog_task2.xlsx,recog_task_images2.xlsx,None,d,1,Hit,1,,,,,,,,,,,,,,,,,,,,,,,,,,,0,1,1,1,,,,,,,,,,,,,,,,,0,94,94,94,,,,,,,,,,,,,,,,,,,,,,,['l'],[0.3354203962953761],0.3354203962953761,0,[],,,,123,A,1,2019_Jun_30_2030,PM,3.0.6,59.708482119627824,
,,,Pictures/8475.jpg,,,PM_list_2.xlsx,PM_images_list_2.xlsx,cue words2.xlsx,cue images2.xlsx,recog_task2.xlsx,recog_task_images2.xlsx,None,l,0,NoHit,1,,,,,,,,,,,,,,,,,,,,,,,,,,,0,1,1,1,,,,,,,,,,,,,,,,,0,95,95,95,,,,,,,,,,,,,,,,,,,,,,,['l'],[0.36887666897382587],0.36887666897382587,1,[],,,,123,A,1,2019_Jun_30_2030,PM,3.0.6,59.708482119627824,
,,,Pictures/9000.jpg,,,PM_list_2.xlsx,PM_images_list_2.xlsx,cue words2.xlsx,cue images2.xlsx,recog_task2.xlsx,recog_task_images2.xlsx,None,l,0,NoHit,1,,,,,,,,,,,,,,,,,,,,,,,,,,,0,1,1,1,,,,,,,,,,,,,,,,,0,96,96,96,,,,,,,,,,,,,,,,,,,,,,,['l'],[0.35221162671223283],0.35221162671223283,1,[],,,,123,A,1,2019_Jun_30_2030,PM,3.0.6,59.708482119627824,
,,,Pictures/6530.jpg,,,PM_list_2.xlsx,PM_images_list_2.xlsx,cue words2.xlsx,cue images2.xlsx,recog_task2.xlsx,recog_task_images2.xlsx,None,l,0,NoHit,1,,,,,,,,,,,,,,,,,,,,,,,,,,,0,1,1,1,,,,,,,,,,,,,,,,,0,97,97,97,,,,,,,,,,,,,,,,,,,,,,,['l'],[0.35262815025635064],0.35262815025635064,1,[],,,,123,A,1,2019_Jun_30_2030,PM,3.0.6,59.708482119627824,
,,,Pictures/9000.jpg,,,PM_list_2.xlsx,PM_images_list_2.xlsx,cue words2.xlsx,cue images2.xlsx,recog_task2.xlsx,recog_task_images2.xlsx,None,d,1,Hit,1,,,,,,,,,,,,,,,,,,,,,,,,,,,0,1,1,1,,,,,,,,,,,,,,,,,0,98,98,98,,,,,,,,,,,,,,,,,,,,,,,['d'],[0.2843367684399709],0.2843367684399709,1,[],,,,123,A,1,2019_Jun_30_2030,PM,3.0.6,59.708482119627824,
