adjective,posneg,panasnum,images,key,corrAnsw,condFile,condFileIm,cueFile,cueFileIm,recogFile,recogFileIm,cues,CORRanswer,trialtype,valArous,block,image,ValArous,Panas_routine.thisRepN,Panas_routine.thisTrialN,Panas_routine.thisN,Panas_routine.thisIndex,trials.thisRepN,trials.thisTrialN,trials.thisN,trials.thisIndex,skip_routine.thisRepN,skip_routine.thisTrialN,skip_routine.thisN,skip_routine.thisIndex,illustration_loop.thisRepN,illustration_loop.thisTrialN,illustration_loop.thisN,illustration_loop.thisIndex,repeat_practice.thisRepN,repeat_practice.thisTrialN,repeat_practice.thisN,repeat_practice.thisIndex,trials_2.thisRepN,trials_2.thisTrialN,trials_2.thisN,trials_2.thisIndex,Group.thisRepN,Group.thisTrialN,Group.thisN,Group.thisIndex,loop_cues.thisRepN,loop_cues.thisTrialN,loop_cues.thisN,loop_cues.thisIndex,loop_cues2.thisRepN,loop_cues2.thisTrialN,loop_cues2.thisN,loop_cues2.thisIndex,instruction_wordfirst.thisRepN,instruction_wordfirst.thisTrialN,instruction_wordfirst.thisN,instruction_wordfirst.thisIndex,instruction_image_first.thisRepN,instruction_image_first.thisTrialN,instruction_image_first.thisN,instruction_image_first.thisIndex,PM_task_loop.thisRepN,PM_task_loop.thisTrialN,PM_task_loop.thisN,PM_task_loop.thisIndex,recog_task_loop.thisRepN,recog_task_loop.thisTrialN,recog_task_loop.thisN,recog_task_loop.thisIndex,trials_3.thisRepN,trials_3.thisTrialN,trials_3.thisN,trials_3.thisIndex,finalLoop.thisRepN,finalLoop.thisTrialN,finalLoop.thisN,finalLoop.thisIndex,rating.response,rating.rt,key_resp_6.keys,key_resp_6.rt,key_resp_6.corr,key_resp_6.rtFirst,key_resp_4.keys,key_resp_4.rt,key_resp_7.keys,key_resp_7.rt,key_resp_PM.keys,key_resp_PM.rt,key_resp_PM.rtFirst,key_resp_PM.corr,key_resp_PM.lenient,key_resp_18.keys,key_resp_18.corr,key_resp_18.rt,participant,Group,session,date,expName,psychopyVersion,frameRate,
interested,pos,1,,,,,,,,,,,,,,,,,0,0,0,0,0,0,0,0,,,,,,,,,,,,,,,,,,,,,,,,,,,,,,,,,,,,,,,,,,,,,,,,,,,,,3,5.955,,,,,,,,,,,,,,,,,99,A,1,2019_Jun_29_1359,PM,3.0.6,60.03323008556002,
distressed,neg,2,,,,,,,,,,,,,,,,,0,0,0,0,0,1,1,1,,,,,,,,,,,,,,,,,,,,,,,,,,,,,,,,,,,,,,,,,,,,,,,,,,,,,3,1.445,,,,,,,,,,,,,,,,,99,A,1,2019_Jun_29_1359,PM,3.0.6,60.03323008556002,
excited,pos,1,,,,,,,,,,,,,,,,,0,0,0,0,0,2,2,2,,,,,,,,,,,,,,,,,,,,,,,,,,,,,,,,,,,,,,,,,,,,,,,,,,,,,3,1.613,,,,,,,,,,,,,,,,,99,A,1,2019_Jun_29_1359,PM,3.0.6,60.03323008556002,
upset,neg,2,,,,,,,,,,,,,,,,,0,0,0,0,0,3,3,3,,,,,,,,,,,,,,,,,,,,,,,,,,,,,,,,,,,,,,,,,,,,,,,,,,,,,3,1.163,,,,,,,,,,,,,,,,,99,A,1,2019_Jun_29_1359,PM,3.0.6,60.03323008556002,
strong,pos,1,,,,,,,,,,,,,,,,,0,0,0,0,0,4,4,4,,,,,,,,,,,,,,,,,,,,,,,,,,,,,,,,,,,,,,,,,,,,,,,,,,,,,3,1.293,,,,,,,,,,,,,,,,,99,A,1,2019_Jun_29_1359,PM,3.0.6,60.03323008556002,
guilty,neg,2,,,,,,,,,,,,,,,,,0,0,0,0,0,5,5,5,,,,,,,,,,,,,,,,,,,,,,,,,,,,,,,,,,,,,,,,,,,,,,,,,,,,,2,3.449,,,,,,,,,,,,,,,,,99,A,1,2019_Jun_29_1359,PM,3.0.6,60.03323008556002,
scared,neg,2,,,,,,,,,,,,,,,,,0,0,0,0,0,6,6,6,,,,,,,,,,,,,,,,,,,,,,,,,,,,,,,,,,,,,,,,,,,,,,,,,,,,,3,2.305,,,,,,,,,,,,,,,,,99,A,1,2019_Jun_29_1359,PM,3.0.6,60.03323008556002,
hostile,neg,2,,,,,,,,,,,,,,,,,0,0,0,0,0,7,7,7,,,,,,,,,,,,,,,,,,,,,,,,,,,,,,,,,,,,,,,,,,,,,,,,,,,,,2,3.401,,,,,,,,,,,,,,,,,99,A,1,2019_Jun_29_1359,PM,3.0.6,60.03323008556002,
enthusiastic,pos,1,,,,,,,,,,,,,,,,,0,0,0,0,0,8,8,8,,,,,,,,,,,,,,,,,,,,,,,,,,,,,,,,,,,,,,,,,,,,,,,,,,,,,4,2.684,,,,,,,,,,,,,,,,,99,A,1,2019_Jun_29_1359,PM,3.0.6,60.03323008556002,
proud,pos,1,,,,,,,,,,,,,,,,,0,0,0,0,0,9,9,9,,,,,,,,,,,,,,,,,,,,,,,,,,,,,,,,,,,,,,,,,,,,,,,,,,,,,3,2.502,,,,,,,,,,,,,,,,,99,A,1,2019_Jun_29_1359,PM,3.0.6,60.03323008556002,
irritable,neg,2,,,,,,,,,,,,,,,,,0,0,0,0,0,10,10,10,,,,,,,,,,,,,,,,,,,,,,,,,,,,,,,,,,,,,,,,,,,,,,,,,,,,,3,2.807,,,,,,,,,,,,,,,,,99,A,1,2019_Jun_29_1359,PM,3.0.6,60.03323008556002,
alert,pos,1,,,,,,,,,,,,,,,,,0,0,0,0,0,11,11,11,,,,,,,,,,,,,,,,,,,,,,,,,,,,,,,,,,,,,,,,,,,,,,,,,,,,,3,1.79,,,,,,,,,,,,,,,,,99,A,1,2019_Jun_29_1359,PM,3.0.6,60.03323008556002,
ashamed,neg,2,,,,,,,,,,,,,,,,,0,0,0,0,0,12,12,12,,,,,,,,,,,,,,,,,,,,,,,,,,,,,,,,,,,,,,,,,,,,,,,,,,,,,3,1.706,,,,,,,,,,,,,,,,,99,A,1,2019_Jun_29_1359,PM,3.0.6,60.03323008556002,
inspired,pos,1,,,,,,,,,,,,,,,,,0,0,0,0,0,13,13,13,,,,,,,,,,,,,,,,,,,,,,,,,,,,,,,,,,,,,,,,,,,,,,,,,,,,,4,2.222,,,,,,,,,,,,,,,,,99,A,1,2019_Jun_29_1359,PM,3.0.6,60.03323008556002,
nervous,neg,2,,,,,,,,,,,,,,,,,0,0,0,0,0,14,14,14,,,,,,,,,,,,,,,,,,,,,,,,,,,,,,,,,,,,,,,,,,,,,,,,,,,,,4,1.769,,,,,,,,,,,,,,,,,99,A,1,2019_Jun_29_1359,PM,3.0.6,60.03323008556002,
determined,pos,1,,,,,,,,,,,,,,,,,0,0,0,0,0,15,15,15,,,,,,,,,,,,,,,,,,,,,,,,,,,,,,,,,,,,,,,,,,,,,,,,,,,,,4,3.564,,,,,,,,,,,,,,,,,99,A,1,2019_Jun_29_1359,PM,3.0.6,60.03323008556002,
attentive,neg,2,,,,,,,,,,,,,,,,,0,0,0,0,0,16,16,16,,,,,,,,,,,,,,,,,,,,,,,,,,,,,,,,,,,,,,,,,,,,,,,,,,,,,4,1.899,,,,,,,,,,,,,,,,,99,A,1,2019_Jun_29_1359,PM,3.0.6,60.03323008556002,
jittery,neg,2,,,,,,,,,,,,,,,,,0,0,0,0,0,17,17,17,,,,,,,,,,,,,,,,,,,,,,,,,,,,,,,,,,,,,,,,,,,,,,,,,,,,,4,2.026,,,,,,,,,,,,,,,,,99,A,1,2019_Jun_29_1359,PM,3.0.6,60.03323008556002,
active,pos,1,,,,,,,,,,,,,,,,,0,0,0,0,0,18,18,18,,,,,,,,,,,,,,,,,,,,,,,,,,,,,,,,,,,,,,,,,,,,,,,,,,,,,4,1.795,,,,,,,,,,,,,,,,,99,A,1,2019_Jun_29_1359,PM,3.0.6,60.03323008556002,
afraid,neg,2,,,,,,,,,,,,,,,,,0,0,0,0,0,19,19,19,,,,,,,,,,,,,,,,,,,,,,,,,,,,,,,,,,,,,,,,,,,,,,,,,,,,,3,1.487,,,,,,,,,,,,,,,,,99,A,1,2019_Jun_29_1359,PM,3.0.6,60.03323008556002,
,,,,,,,,,,,,,,,,,,,0,0,0,0,,,,,,,,,,,,,,,,,,,,,,,,,,,,,,,,,,,,,,,,,,,,,,,,,,,,,,,,,,,,,,,,,,,,,,,,,,,99,A,1,2019_Jun_29_1359,PM,3.0.6,60.03323008556002,
,,,Explanation1.jpg,space,,,,,,,,,,,,,,,,,,,,,,,0,0,0,0,0,0,0,0,,,,,,,,,,,,,,,,,,,,,,,,,,,,,,,,,,,,,,,,,,,,,,,,,,,,,,,,,,,,,,,99,A,1,2019_Jun_29_1359,PM,3.0.6,60.03323008556002,
,,,Explanation2.jpg,l,,,,,,,,,,,,,,,,,,,,,,,0,0,0,0,0,1,1,1,,,,,,,,,,,,,,,,,,,,,,,,,,,,,,,,,,,,,,,,,,,,,,,,,,,,,,,,,,,,,,,99,A,1,2019_Jun_29_1359,PM,3.0.6,60.03323008556002,
,,,Explanation3.jpg,l,,,,,,,,,,,,,,,,,,,,,,,0,0,0,0,0,2,2,2,,,,,,,,,,,,,,,,,,,,,,,,,,,,,,,,,,,,,,,,,,,,,,,,,,,,,,,,,,,,,,,99,A,1,2019_Jun_29_1359,PM,3.0.6,60.03323008556002,
,,,Explanation4.jpg,l,,,,,,,,,,,,,,,,,,,,,,,0,0,0,0,0,3,3,3,,,,,,,,,,,,,,,,,,,,,,,,,,,,,,,,,,,,,,,,,,,,,,,,,,,,,,,,,,,,,,,99,A,1,2019_Jun_29_1359,PM,3.0.6,60.03323008556002,
,,,Explanation5.jpg,d,,,,,,,,,,,,,,,,,,,,,,,0,0,0,0,0,4,4,4,,,,,,,,,,,,,,,,,,,,,,,,,,,,,,,,,,,,,,,,,,,,,,,,,,,,,,,,,,,,,,,99,A,1,2019_Jun_29_1359,PM,3.0.6,60.03323008556002,
,,,Explanation6.jpg,l,,,,,,,,,,,,,,,,,,,,,,,0,0,0,0,0,5,5,5,,,,,,,,,,,,,,,,,,,,,,,,,,,,,,,,,,,,,,,,,,,,,,,,,,,,,,,,,,,,,,,99,A,1,2019_Jun_29_1359,PM,3.0.6,60.03323008556002,
,,,Explanation7.jpg,space,,,,,,,,,,,,,,,,,,,,,,,0,0,0,0,0,6,6,6,,,,,,,,,,,,,,,,,,,,,,,,,,,,,,,,,,,,,,,,,,,,,,,,,,,,,,,,,,,,,,,99,A,1,2019_Jun_29_1359,PM,3.0.6,60.03323008556002,
,,,Pictures/1710.jpg,,l,,,,,,,,,,,,,,,,,,,,,,0,0,0,0,,,,,0,0,0,0,0,0,0,0,,,,,,,,,,,,,,,,,,,,,,,,,,,,,,,,,,,,,,,['l'],[0.8675611483631656],1,0.8675611483631656,,,,,,,,,,,,,99,A,1,2019_Jun_29_1359,PM,3.0.6,60.03323008556002,
,,,Pictures/2635.jpg,,l,,,,,,,,,,,,,,,,,,,,,,0,0,0,0,,,,,0,0,0,0,0,1,1,1,,,,,,,,,,,,,,,,,,,,,,,,,,,,,,,,,,,,,,,['l'],[0.33788481721421704],1,0.33788481721421704,,,,,,,,,,,,,99,A,1,2019_Jun_29_1359,PM,3.0.6,60.03323008556002,
,,,Pictures/1710.jpg,,d,,,,,,,,,,,,,,,,,,,,,,0,0,0,0,,,,,0,0,0,0,0,2,2,2,,,,,,,,,,,,,,,,,,,,,,,,,,,,,,,,,,,,,,,['d'],[1.5438217332120985],1,1.5438217332120985,,,,,,,,,,,,,99,A,1,2019_Jun_29_1359,PM,3.0.6,60.03323008556002,
,,,Pictures/5890.jpg,,l,,,,,,,,,,,,,,,,,,,,,,0,0,0,0,,,,,0,0,0,0,0,3,3,3,,,,,,,,,,,,,,,,,,,,,,,,,,,,,,,,,,,,,,,['l'],[0.9254898837534711],1,0.9254898837534711,,,,,,,,,,,,,99,A,1,2019_Jun_29_1359,PM,3.0.6,60.03323008556002,
,,,Pictures/1675.jpg,,l,,,,,,,,,,,,,,,,,,,,,,0,0,0,0,,,,,0,0,0,0,0,4,4,4,,,,,,,,,,,,,,,,,,,,,,,,,,,,,,,,,,,,,,,['l'],[1.046732449089177],1,1.046732449089177,,,,,,,,,,,,,99,A,1,2019_Jun_29_1359,PM,3.0.6,60.03323008556002,
,,,Pictures/2635.jpg,,l,,,,,,,,,,,,,,,,,,,,,,0,0,0,0,,,,,0,0,0,0,0,5,5,5,,,,,,,,,,,,,,,,,,,,,,,,,,,,,,,,,,,,,,,['d'],[0.7118849253165536],0,0.7118849253165536,,,,,,,,,,,,,99,A,1,2019_Jun_29_1359,PM,3.0.6,60.03323008556002,
,,,Pictures/1675.jpg,,d,,,,,,,,,,,,,,,,,,,,,,0,0,0,0,,,,,0,0,0,0,0,6,6,6,,,,,,,,,,,,,,,,,,,,,,,,,,,,,,,,,,,,,,,['d'],[0.8642598908627406],1,0.8642598908627406,,,,,,,,,,,,,99,A,1,2019_Jun_29_1359,PM,3.0.6,60.03323008556002,
,,,Pictures/7009.jpg,,l,,,,,,,,,,,,,,,,,,,,,,0,0,0,0,,,,,0,0,0,0,0,7,7,7,,,,,,,,,,,,,,,,,,,,,,,,,,,,,,,,,,,,,,,['l'],[0.5688858042703941],1,0.5688858042703941,,,,,,,,,,,,,99,A,1,2019_Jun_29_1359,PM,3.0.6,60.03323008556002,
,,,Pictures/7021.jpg,,l,,,,,,,,,,,,,,,,,,,,,,0,0,0,0,,,,,0,0,0,0,0,8,8,8,,,,,,,,,,,,,,,,,,,,,,,,,,,,,,,,,,,,,,,['l'],[1.3165537897730246],1,1.3165537897730246,,,,,,,,,,,,,99,A,1,2019_Jun_29_1359,PM,3.0.6,60.03323008556002,
,,,Pictures/7009.jpg,,d,,,,,,,,,,,,,,,,,,,,,,0,0,0,0,,,,,0,0,0,0,0,9,9,9,,,,,,,,,,,,,,,,,,,,,,,,,,,,,,,,,,,,,,,['d'],[0.5099251058418304],1,0.5099251058418304,,,,,,,,,,,,,99,A,1,2019_Jun_29_1359,PM,3.0.6,60.03323008556002,
,,,Pictures/5890.jpg,,l,,,,,,,,,,,,,,,,,,,,,,0,0,0,0,,,,,0,0,0,0,0,10,10,10,,,,,,,,,,,,,,,,,,,,,,,,,,,,,,,,,,,,,,,['l'],[1.209617053042166],1,1.209617053042166,,,,,,,,,,,,,99,A,1,2019_Jun_29_1359,PM,3.0.6,60.03323008556002,
,,,,,,,,,,,,,,,,,,,,,,,,,,,0,0,0,0,,,,,0,0,0,0,,,,,,,,,,,,,,,,,,,,,,,,,,,,,,,,,,,,,,,,,,,,,,,n,7.022999576176517,,,,,,,,,,,99,A,1,2019_Jun_29_1359,PM,3.0.6,60.03323008556002,
,,,,,,,,,,,,,,,,,,,,,,,,,,,0,0,0,0,,,,,,,,,,,,,,,,,,,,,,,,,,,,,,,,,,,,,,,,,,,,,,,,,,,,,,,,,space,3.5359022422344424,,,,,,,,,99,A,1,2019_Jun_29_1359,PM,3.0.6,60.03323008556002,
,,,,,,PM_list_1.xlsx,PM_images_list_1.xlsx,cue words.xlsx,cue images.xlsx,recog_task.xlsx,recog_task_images1.xlsx,Pictures/8192.jpg,,,,,,,,,,,,,,,,,,,,,,,,,,,,,,,0,0,0,0,0,0,0,3,,,,,,,,,,,,,,,,,,,,,,,,,,,,,,,,,,,,,,,,,,,,,,,99,A,1,2019_Jun_29_1359,PM,3.0.6,60.03323008556002,
,,,,,,PM_list_1.xlsx,PM_images_list_1.xlsx,cue words.xlsx,cue images.xlsx,recog_task.xlsx,recog_task_images1.xlsx,Pictures/9909.jpg,,,,,,,,,,,,,,,,,,,,,,,,,,,,,,,0,0,0,0,0,1,1,5,,,,,,,,,,,,,,,,,,,,,,,,,,,,,,,,,,,,,,,,,,,,,,,99,A,1,2019_Jun_29_1359,PM,3.0.6,60.03323008556002,
,,,,,,PM_list_1.xlsx,PM_images_list_1.xlsx,cue words.xlsx,cue images.xlsx,recog_task.xlsx,recog_task_images1.xlsx,Pictures/2301.jpg,,,,,,,,,,,,,,,,,,,,,,,,,,,,,,,0,0,0,0,0,2,2,4,,,,,,,,,,,,,,,,,,,,,,,,,,,,,,,,,,,,,,,,,,,,,,,99,A,1,2019_Jun_29_1359,PM,3.0.6,60.03323008556002,
,,,,,,PM_list_1.xlsx,PM_images_list_1.xlsx,cue words.xlsx,cue images.xlsx,recog_task.xlsx,recog_task_images1.xlsx,Pictures/7042.jpg,,,,,,,,,,,,,,,,,,,,,,,,,,,,,,,0,0,0,0,0,3,3,0,,,,,,,,,,,,,,,,,,,,,,,,,,,,,,,,,,,,,,,,,,,,,,,99,A,1,2019_Jun_29_1359,PM,3.0.6,60.03323008556002,
,,,,,,PM_list_1.xlsx,PM_images_list_1.xlsx,cue words.xlsx,cue images.xlsx,recog_task.xlsx,recog_task_images1.xlsx,Pictures/7405.jpg,,,,,,,,,,,,,,,,,,,,,,,,,,,,,,,0,0,0,0,0,4,4,1,,,,,,,,,,,,,,,,,,,,,,,,,,,,,,,,,,,,,,,,,,,,,,,99,A,1,2019_Jun_29_1359,PM,3.0.6,60.03323008556002,
,,,,,,PM_list_1.xlsx,PM_images_list_1.xlsx,cue words.xlsx,cue images.xlsx,recog_task.xlsx,recog_task_images1.xlsx,Pictures/2151.jpg,,,,,,,,,,,,,,,,,,,,,,,,,,,,,,,0,0,0,0,0,5,5,2,,,,,,,,,,,,,,,,,,,,,,,,,,,,,,,,,,,,,,,,,,,,,,,99,A,1,2019_Jun_29_1359,PM,3.0.6,60.03323008556002,
,,,,,,PM_list_1.xlsx,PM_images_list_1.xlsx,cue words.xlsx,cue images.xlsx,recog_task.xlsx,recog_task_images1.xlsx,Pictures/8192.jpg,,,,,,,,,,,,,,,,,,,,,,,,,,,,,,,0,0,0,0,,,,,0,0,0,3,,,,,,,,,,,,,,,,,,,,,,,,,,,,,,,,,,,,,,,,,,,99,A,1,2019_Jun_29_1359,PM,3.0.6,60.03323008556002,
,,,,,,PM_list_1.xlsx,PM_images_list_1.xlsx,cue words.xlsx,cue images.xlsx,recog_task.xlsx,recog_task_images1.xlsx,Pictures/2151.jpg,,,,,,,,,,,,,,,,,,,,,,,,,,,,,,,0,0,0,0,,,,,0,1,1,2,,,,,,,,,,,,,,,,,,,,,,,,,,,,,,,,,,,,,,,,,,,99,A,1,2019_Jun_29_1359,PM,3.0.6,60.03323008556002,
,,,,,,PM_list_1.xlsx,PM_images_list_1.xlsx,cue words.xlsx,cue images.xlsx,recog_task.xlsx,recog_task_images1.xlsx,Pictures/2301.jpg,,,,,,,,,,,,,,,,,,,,,,,,,,,,,,,0,0,0,0,,,,,0,2,2,4,,,,,,,,,,,,,,,,,,,,,,,,,,,,,,,,,,,,,,,,,,,99,A,1,2019_Jun_29_1359,PM,3.0.6,60.03323008556002,
,,,,,,PM_list_1.xlsx,PM_images_list_1.xlsx,cue words.xlsx,cue images.xlsx,recog_task.xlsx,recog_task_images1.xlsx,Pictures/7042.jpg,,,,,,,,,,,,,,,,,,,,,,,,,,,,,,,0,0,0,0,,,,,0,3,3,0,,,,,,,,,,,,,,,,,,,,,,,,,,,,,,,,,,,,,,,,,,,99,A,1,2019_Jun_29_1359,PM,3.0.6,60.03323008556002,
,,,,,,PM_list_1.xlsx,PM_images_list_1.xlsx,cue words.xlsx,cue images.xlsx,recog_task.xlsx,recog_task_images1.xlsx,Pictures/9909.jpg,,,,,,,,,,,,,,,,,,,,,,,,,,,,,,,0,0,0,0,,,,,0,4,4,5,,,,,,,,,,,,,,,,,,,,,,,,,,,,,,,,,,,,,,,,,,,99,A,1,2019_Jun_29_1359,PM,3.0.6,60.03323008556002,
,,,,,,PM_list_1.xlsx,PM_images_list_1.xlsx,cue words.xlsx,cue images.xlsx,recog_task.xlsx,recog_task_images1.xlsx,Pictures/7405.jpg,,,,,,,,,,,,,,,,,,,,,,,,,,,,,,,0,0,0,0,,,,,0,5,5,1,,,,,,,,,,,,,,,,,,,,,,,,,,,,,,,,,,,,,,,,,,,99,A,1,2019_Jun_29_1359,PM,3.0.6,60.03323008556002,
,,,,,,PM_list_1.xlsx,PM_images_list_1.xlsx,cue words.xlsx,cue images.xlsx,recog_task.xlsx,recog_task_images1.xlsx,,,,,,,,,,,,,,,,,,,,,,,,,,,,,,,,0,0,0,0,,,,,,,,,0,0,0,0,,,,,,,,,,,,,,,,,,,,,,,,,,,,,,,,,,,,,,,99,A,1,2019_Jun_29_1359,PM,3.0.6,60.03323008556002,
,,,Pictures/1101.jpg,,,PM_list_1.xlsx,PM_images_list_1.xlsx,cue words.xlsx,cue images.xlsx,recog_task.xlsx,recog_task_images1.xlsx,Pictures/7042.jpg,l,0,NoHit,1,,,,,,,,,,,,,,,,,,,,,,,,,,,0,0,0,0,,,,,,,,,,,,,,,,,0,0,0,0,,,,,,,,,,,,,,,,,,,,,,,['l'],[0.43674106773687527],0.43674106773687527,1,[],,,,99,A,1,2019_Jun_29_1359,PM,3.0.6,60.03323008556002,
,,,Pictures/7054.jpg,,,PM_list_1.xlsx,PM_images_list_1.xlsx,cue words.xlsx,cue images.xlsx,recog_task.xlsx,recog_task_images1.xlsx,Pictures/7405.jpg,l,0,NoHit,1,,,,,,,,,,,,,,,,,,,,,,,,,,,0,0,0,0,,,,,,,,,,,,,,,,,0,1,1,1,,,,,,,,,,,,,,,,,,,,,,,['l'],[0.5315075818216428],0.5315075818216428,1,[],,,,99,A,1,2019_Jun_29_1359,PM,3.0.6,60.03323008556002,
,,,Pictures/1022.jpg,,,PM_list_1.xlsx,PM_images_list_1.xlsx,cue words.xlsx,cue images.xlsx,recog_task.xlsx,recog_task_images1.xlsx,Pictures/2151.jpg,l,0,NoHit,1,,,,,,,,,,,,,,,,,,,,,,,,,,,0,0,0,0,,,,,,,,,,,,,,,,,0,2,2,2,,,,,,,,,,,,,,,,,,,,,,,['l'],[0.4694805767503567],0.4694805767503567,1,[],,,,99,A,1,2019_Jun_29_1359,PM,3.0.6,60.03323008556002,
,,,Pictures/7054.jpg,,,PM_list_1.xlsx,PM_images_list_1.xlsx,cue words.xlsx,cue images.xlsx,recog_task.xlsx,recog_task_images1.xlsx,Pictures/8192.jpg,d,1,Hit,1,,,,,,,,,,,,,,,,,,,,,,,,,,,0,0,0,0,,,,,,,,,,,,,,,,,0,3,3,3,,,,,,,,,,,,,,,,,,,,,,,['d'],[0.520521215221379],0.520521215221379,1,[],,,,99,A,1,2019_Jun_29_1359,PM,3.0.6,60.03323008556002,
,,,Pictures/1750.jpg,,,PM_list_1.xlsx,PM_images_list_1.xlsx,cue words.xlsx,cue images.xlsx,recog_task.xlsx,recog_task_images1.xlsx,Pictures/2301.jpg,l,0,NoHit,1,,,,,,,,,,,,,,,,,,,,,,,,,,,0,0,0,0,,,,,,,,,,,,,,,,,0,4,4,4,,,,,,,,,,,,,,,,,,,,,,,['l'],[0.49678436014801264],0.49678436014801264,1,[],,,,99,A,1,2019_Jun_29_1359,PM,3.0.6,60.03323008556002,
,,,Pictures/2720.jpg,,,PM_list_1.xlsx,PM_images_list_1.xlsx,cue words.xlsx,cue images.xlsx,recog_task.xlsx,recog_task_images1.xlsx,Pictures/9909.jpg,l,0,NoHit,1,,,,,,,,,,,,,,,,,,,,,,,,,,,0,0,0,0,,,,,,,,,,,,,,,,,0,5,5,5,,,,,,,,,,,,,,,,,,,,,,,['l'],[0.46796449000248685],0.46796449000248685,1,[],,,,99,A,1,2019_Jun_29_1359,PM,3.0.6,60.03323008556002,
,,,Pictures/1750.jpg,,,PM_list_1.xlsx,PM_images_list_1.xlsx,cue words.xlsx,cue images.xlsx,recog_task.xlsx,recog_task_images1.xlsx,None,d,1,Hit,1,,,,,,,,,,,,,,,,,,,,,,,,,,,0,0,0,0,,,,,,,,,,,,,,,,,0,6,6,6,,,,,,,,,,,,,,,,,,,,,,,['d'],[0.6431973785511218],0.6431973785511218,1,[],,,,99,A,1,2019_Jun_29_1359,PM,3.0.6,60.03323008556002,
,,,Pictures/4622.jpg,,,PM_list_1.xlsx,PM_images_list_1.xlsx,cue words.xlsx,cue images.xlsx,recog_task.xlsx,recog_task_images1.xlsx,None,l,0,NoHit,1,,,,,,,,,,,,,,,,,,,,,,,,,,,0,0,0,0,,,,,,,,,,,,,,,,,0,7,7,7,,,,,,,,,,,,,,,,,,,,,,,['l'],[0.5581719350302592],0.5581719350302592,1,[],,,,99,A,1,2019_Jun_29_1359,PM,3.0.6,60.03323008556002,
,,,Pictures/8065.jpg,,,PM_list_1.xlsx,PM_images_list_1.xlsx,cue words.xlsx,cue images.xlsx,recog_task.xlsx,recog_task_images1.xlsx,None,l,0,NoHit,1,,,,,,,,,,,,,,,,,,,,,,,,,,,0,0,0,0,,,,,,,,,,,,,,,,,0,8,8,8,,,,,,,,,,,,,,,,,,,,,,,['l'],[1.026274095987901],1.026274095987901,1,[],,,,99,A,1,2019_Jun_29_1359,PM,3.0.6,60.03323008556002,
,,,Pictures/4622.jpg,,,PM_list_1.xlsx,PM_images_list_1.xlsx,cue words.xlsx,cue images.xlsx,recog_task.xlsx,recog_task_images1.xlsx,None,d,1,Hit,1,,,,,,,,,,,,,,,,,,,,,,,,,,,0,0,0,0,,,,,,,,,,,,,,,,,0,9,9,9,,,,,,,,,,,,,,,,,,,,,,,['d'],[0.7124367468059063],0.7124367468059063,1,[],,,,99,A,1,2019_Jun_29_1359,PM,3.0.6,60.03323008556002,
,,,Pictures/7042.jpg,,,PM_list_1.xlsx,PM_images_list_1.xlsx,cue words.xlsx,cue images.xlsx,recog_task.xlsx,recog_task_images1.xlsx,None,h,3,NeuL1,1,,,,,,,,,,,,,,,,,,,,,,,,,,,0,0,0,0,,,,,,,,,,,,,,,,,0,10,10,10,,,,,,,,,,,,,,,,,,,,,,,['l'],[0.5122922491864301],0.5122922491864301,0,0,,,,99,A,1,2019_Jun_29_1359,PM,3.0.6,60.03323008556002,
,,,Pictures/2520.jpg,,,PM_list_1.xlsx,PM_images_list_1.xlsx,cue words.xlsx,cue images.xlsx,recog_task.xlsx,recog_task_images1.xlsx,None,l,0,NoHit,1,,,,,,,,,,,,,,,,,,,,,,,,,,,0,0,0,0,,,,,,,,,,,,,,,,,0,11,11,11,,,,,,,,,,,,,,,,,,,,,,,['l'],[0.46970699419034645],0.46970699419034645,1,[],,,,99,A,1,2019_Jun_29_1359,PM,3.0.6,60.03323008556002,
,,,Pictures/4599.jpg,,,PM_list_1.xlsx,PM_images_list_1.xlsx,cue words.xlsx,cue images.xlsx,recog_task.xlsx,recog_task_images1.xlsx,None,l,0,NoHit,1,,,,,,,,,,,,,,,,,,,,,,,,,,,0,0,0,0,,,,,,,,,,,,,,,,,0,12,12,12,,,,,,,,,,,,,,,,,,,,,,,['l'],[0.5861373352818191],0.5861373352818191,1,[],,,,99,A,1,2019_Jun_29_1359,PM,3.0.6,60.03323008556002,
,,,Pictures/6910.jpg,,,PM_list_1.xlsx,PM_images_list_1.xlsx,cue words.xlsx,cue images.xlsx,recog_task.xlsx,recog_task_images1.xlsx,None,l,0,NoHit,1,,,,,,,,,,,,,,,,,,,,,,,,,,,0,0,0,0,,,,,,,,,,,,,,,,,0,13,13,13,,,,,,,,,,,,,,,,,,,,,,,['l'],[0.6511544161476195],0.6511544161476195,1,[],,,,99,A,1,2019_Jun_29_1359,PM,3.0.6,60.03323008556002,
,,,Pictures/4599.jpg,,,PM_list_1.xlsx,PM_images_list_1.xlsx,cue words.xlsx,cue images.xlsx,recog_task.xlsx,recog_task_images1.xlsx,None,d,1,Hit,1,,,,,,,,,,,,,,,,,,,,,,,,,,,0,0,0,0,,,,,,,,,,,,,,,,,0,14,14,14,,,,,,,,,,,,,,,,,,,,,,,['d'],[0.623338064586278],0.623338064586278,1,[],,,,99,A,1,2019_Jun_29_1359,PM,3.0.6,60.03323008556002,
,,,Pictures/9041.jpg,,,PM_list_1.xlsx,PM_images_list_1.xlsx,cue words.xlsx,cue images.xlsx,recog_task.xlsx,recog_task_images1.xlsx,None,l,0,NoHit,1,,,,,,,,,,,,,,,,,,,,,,,,,,,0,0,0,0,,,,,,,,,,,,,,,,,0,15,15,15,,,,,,,,,,,,,,,,,,,,,,,['l'],[0.6481421538046561],0.6481421538046561,1,[],,,,99,A,1,2019_Jun_29_1359,PM,3.0.6,60.03323008556002,
,,,Pictures/2750.jpg,,,PM_list_1.xlsx,PM_images_list_1.xlsx,cue words.xlsx,cue images.xlsx,recog_task.xlsx,recog_task_images1.xlsx,None,l,0,NoHit,1,,,,,,,,,,,,,,,,,,,,,,,,,,,0,0,0,0,,,,,,,,,,,,,,,,,0,16,16,16,,,,,,,,,,,,,,,,,,,,,,,['l'],[0.44034099153941497],0.44034099153941497,1,[],,,,99,A,1,2019_Jun_29_1359,PM,3.0.6,60.03323008556002,
,,,Pictures/9041.jpg,,,PM_list_1.xlsx,PM_images_list_1.xlsx,cue words.xlsx,cue images.xlsx,recog_task.xlsx,recog_task_images1.xlsx,None,d,1,Hit,1,,,,,,,,,,,,,,,,,,,,,,,,,,,0,0,0,0,,,,,,,,,,,,,,,,,0,17,17,17,,,,,,,,,,,,,,,,,,,,,,,['d'],[0.7750280888867564],0.7750280888867564,1,[],,,,99,A,1,2019_Jun_29_1359,PM,3.0.6,60.03323008556002,
,,,Pictures/9342.jpg,,,PM_list_1.xlsx,PM_images_list_1.xlsx,cue words.xlsx,cue images.xlsx,recog_task.xlsx,recog_task_images1.xlsx,None,l,0,NoHit,1,,,,,,,,,,,,,,,,,,,,,,,,,,,0,0,0,0,,,,,,,,,,,,,,,,,0,18,18,18,,,,,,,,,,,,,,,,,,,,,,,['l'],[0.7578971621114761],0.7578971621114761,1,[],,,,99,A,1,2019_Jun_29_1359,PM,3.0.6,60.03323008556002,
,,,Pictures/6021.jpg,,,PM_list_1.xlsx,PM_images_list_1.xlsx,cue words.xlsx,cue images.xlsx,recog_task.xlsx,recog_task_images1.xlsx,None,l,0,NoHit,1,,,,,,,,,,,,,,,,,,,,,,,,,,,0,0,0,0,,,,,,,,,,,,,,,,,0,19,19,19,,,,,,,,,,,,,,,,,,,,,,,None,[],,0,[],,,,99,A,1,2019_Jun_29_1359,PM,3.0.6,60.03323008556002,
,,,Pictures/2331.jpg,,,PM_list_1.xlsx,PM_images_list_1.xlsx,cue words.xlsx,cue images.xlsx,recog_task.xlsx,recog_task_images1.xlsx,None,l,0,NoHit,1,,,,,,,,,,,,,,,,,,,,,,,,,,,0,0,0,0,,,,,,,,,,,,,,,,,0,20,20,20,,,,,,,,,,,,,,,,,,,,,,,['l'],[0.9877273774472997],0.9877273774472997,1,[],,,,99,A,1,2019_Jun_29_1359,PM,3.0.6,60.03323008556002,
,,,Pictures/7405.jpg,,,PM_list_1.xlsx,PM_images_list_1.xlsx,cue words.xlsx,cue images.xlsx,recog_task.xlsx,recog_task_images1.xlsx,None,h,7,PosH1,1,,,,,,,,,,,,,,,,,,,,,,,,,,,0,0,0,0,,,,,,,,,,,,,,,,,0,21,21,21,,,,,,,,,,,,,,,,,,,,,,,None,[],,0,0,,,,99,A,1,2019_Jun_29_1359,PM,3.0.6,60.03323008556002,
,,,Pictures/2331.jpg,,,PM_list_1.xlsx,PM_images_list_1.xlsx,cue words.xlsx,cue images.xlsx,recog_task.xlsx,recog_task_images1.xlsx,None,d,1,Hit,1,,,,,,,,,,,,,,,,,,,,,,,,,,,0,0,0,0,,,,,,,,,,,,,,,,,0,22,22,22,,,,,,,,,,,,,,,,,,,,,,,['d'],[0.8735509709222242],0.8735509709222242,1,[],,,,99,A,1,2019_Jun_29_1359,PM,3.0.6,60.03323008556002,
,,,Pictures/2309.jpg,,,PM_list_1.xlsx,PM_images_list_1.xlsx,cue words.xlsx,cue images.xlsx,recog_task.xlsx,recog_task_images1.xlsx,None,l,0,NoHit,1,,,,,,,,,,,,,,,,,,,,,,,,,,,0,0,0,0,,,,,,,,,,,,,,,,,0,23,23,23,,,,,,,,,,,,,,,,,,,,,,,None,[],,0,[],,,,99,A,1,2019_Jun_29_1359,PM,3.0.6,60.03323008556002,
,,,Pictures/1460.jpg,,,PM_list_1.xlsx,PM_images_list_1.xlsx,cue words.xlsx,cue images.xlsx,recog_task.xlsx,recog_task_images1.xlsx,None,l,0,NoHit,1,,,,,,,,,,,,,,,,,,,,,,,,,,,0,0,0,0,,,,,,,,,,,,,,,,,0,24,24,24,,,,,,,,,,,,,,,,,,,,,,,None,[],,0,[],,,,99,A,1,2019_Jun_29_1359,PM,3.0.6,60.03323008556002,
,,,Pictures/3103.jpg,,,PM_list_1.xlsx,PM_images_list_1.xlsx,cue words.xlsx,cue images.xlsx,recog_task.xlsx,recog_task_images1.xlsx,None,l,0,NoHit,1,,,,,,,,,,,,,,,,,,,,,,,,,,,0,0,0,0,,,,,,,,,,,,,,,,,0,25,25,25,,,,,,,,,,,,,,,,,,,,,,,None,[],,0,[],,,,99,A,1,2019_Jun_29_1359,PM,3.0.6,60.03323008556002,
,,,Pictures/1460.jpg,,,PM_list_1.xlsx,PM_images_list_1.xlsx,cue words.xlsx,cue images.xlsx,recog_task.xlsx,recog_task_images1.xlsx,None,d,1,Hit,1,,,,,,,,,,,,,,,,,,,,,,,,,,,0,0,0,0,,,,,,,,,,,,,,,,,0,26,26,26,,,,,,,,,,,,,,,,,,,,,,,None,[],,0,[],,,,99,A,1,2019_Jun_29_1359,PM,3.0.6,60.03323008556002,
,,,Pictures/8090.jpg,,,PM_list_1.xlsx,PM_images_list_1.xlsx,cue words.xlsx,cue images.xlsx,recog_task.xlsx,recog_task_images1.xlsx,None,l,0,NoHit,1,,,,,,,,,,,,,,,,,,,,,,,,,,,0,0,0,0,,,,,,,,,,,,,,,,,0,27,27,27,,,,,,,,,,,,,,,,,,,,,,,None,[],,0,[],,,,99,A,1,2019_Jun_29_1359,PM,3.0.6,60.03323008556002,
,,,Pictures/3302.jpg,,,PM_list_1.xlsx,PM_images_list_1.xlsx,cue words.xlsx,cue images.xlsx,recog_task.xlsx,recog_task_images1.xlsx,None,l,0,NoHit,1,,,,,,,,,,,,,,,,,,,,,,,,,,,0,0,0,0,,,,,,,,,,,,,,,,,0,28,28,28,,,,,,,,,,,,,,,,,,,,,,,None,[],,0,[],,,,99,A,1,2019_Jun_29_1359,PM,3.0.6,60.03323008556002,
,,,Pictures/2650.jpg,,,PM_list_1.xlsx,PM_images_list_1.xlsx,cue words.xlsx,cue images.xlsx,recog_task.xlsx,recog_task_images1.xlsx,None,l,0,NoHit,1,,,,,,,,,,,,,,,,,,,,,,,,,,,0,0,0,0,,,,,,,,,,,,,,,,,0,29,29,29,,,,,,,,,,,,,,,,,,,,,,,None,[],,0,[],,,,99,A,1,2019_Jun_29_1359,PM,3.0.6,60.03323008556002,
,,,Pictures/3302.jpg,,,PM_list_1.xlsx,PM_images_list_1.xlsx,cue words.xlsx,cue images.xlsx,recog_task.xlsx,recog_task_images1.xlsx,None,d,1,Hit,1,,,,,,,,,,,,,,,,,,,,,,,,,,,0,0,0,0,,,,,,,,,,,,,,,,,0,30,30,30,,,,,,,,,,,,,,,,,,,,,,,None,[],,0,[],,,,99,A,1,2019_Jun_29_1359,PM,3.0.6,60.03323008556002,
,,,Pictures/2151.jpg,,,PM_list_1.xlsx,PM_images_list_1.xlsx,cue words.xlsx,cue images.xlsx,recog_task.xlsx,recog_task_images1.xlsx,None,h,4,PosL1,1,,,,,,,,,,,,,,,,,,,,,,,,,,,0,0,0,0,,,,,,,,,,,,,,,,,0,31,31,31,,,,,,,,,,,,,,,,,,,,,,,None,[],,0,0,,,,99,A,1,2019_Jun_29_1359,PM,3.0.6,60.03323008556002,
,,,Pictures/2222.jpg,,,PM_list_1.xlsx,PM_images_list_1.xlsx,cue words.xlsx,cue images.xlsx,recog_task.xlsx,recog_task_images1.xlsx,None,l,0,NoHit,1,,,,,,,,,,,,,,,,,,,,,,,,,,,0,0,0,0,,,,,,,,,,,,,,,,,0,32,32,32,,,,,,,,,,,,,,,,,,,,,,,None,[],,0,[],,,,99,A,1,2019_Jun_29_1359,PM,3.0.6,60.03323008556002,
,,,Pictures/8185.jpg,,,PM_list_1.xlsx,PM_images_list_1.xlsx,cue words.xlsx,cue images.xlsx,recog_task.xlsx,recog_task_images1.xlsx,None,l,0,NoHit,1,,,,,,,,,,,,,,,,,,,,,,,,,,,0,0,0,0,,,,,,,,,,,,,,,,,0,33,33,33,,,,,,,,,,,,,,,,,,,,,,,None,[],,0,[],,,,99,A,1,2019_Jun_29_1359,PM,3.0.6,60.03323008556002,
,,,Pictures/1303.jpg,,,PM_list_1.xlsx,PM_images_list_1.xlsx,cue words.xlsx,cue images.xlsx,recog_task.xlsx,recog_task_images1.xlsx,None,l,0,NoHit,1,,,,,,,,,,,,,,,,,,,,,,,,,,,0,0,0,0,,,,,,,,,,,,,,,,,0,34,34,34,,,,,,,,,,,,,,,,,,,,,,,None,[],,0,[],,,,99,A,1,2019_Jun_29_1359,PM,3.0.6,60.03323008556002,
,,,Pictures/8185.jpg,,,PM_list_1.xlsx,PM_images_list_1.xlsx,cue words.xlsx,cue images.xlsx,recog_task.xlsx,recog_task_images1.xlsx,None,d,1,Hit,1,,,,,,,,,,,,,,,,,,,,,,,,,,,0,0,0,0,,,,,,,,,,,,,,,,,0,35,35,35,,,,,,,,,,,,,,,,,,,,,,,None,[],,0,[],,,,99,A,1,2019_Jun_29_1359,PM,3.0.6,60.03323008556002,
,,,Pictures/9911.jpg,,,PM_list_1.xlsx,PM_images_list_1.xlsx,cue words.xlsx,cue images.xlsx,recog_task.xlsx,recog_task_images1.xlsx,None,l,0,NoHit,1,,,,,,,,,,,,,,,,,,,,,,,,,,,0,0,0,0,,,,,,,,,,,,,,,,,0,36,36,36,,,,,,,,,,,,,,,,,,,,,,,None,[],,0,[],,,,99,A,1,2019_Jun_29_1359,PM,3.0.6,60.03323008556002,
,,,Pictures/2688.jpg,,,PM_list_1.xlsx,PM_images_list_1.xlsx,cue words.xlsx,cue images.xlsx,recog_task.xlsx,recog_task_images1.xlsx,None,l,0,NoHit,1,,,,,,,,,,,,,,,,,,,,,,,,,,,0,0,0,0,,,,,,,,,,,,,,,,,0,37,37,37,,,,,,,,,,,,,,,,,,,,,,,None,[],,0,[],,,,99,A,1,2019_Jun_29_1359,PM,3.0.6,60.03323008556002,
,,,Pictures/8496.jpg,,,PM_list_1.xlsx,PM_images_list_1.xlsx,cue words.xlsx,cue images.xlsx,recog_task.xlsx,recog_task_images1.xlsx,None,l,0,NoHit,1,,,,,,,,,,,,,,,,,,,,,,,,,,,0,0,0,0,,,,,,,,,,,,,,,,,0,38,38,38,,,,,,,,,,,,,,,,,,,,,,,None,[],,0,[],,,,99,A,1,2019_Jun_29_1359,PM,3.0.6,60.03323008556002,
,,,Pictures/5833.jpg,,,PM_list_1.xlsx,PM_images_list_1.xlsx,cue words.xlsx,cue images.xlsx,recog_task.xlsx,recog_task_images1.xlsx,None,l,0,NoHit,1,,,,,,,,,,,,,,,,,,,,,,,,,,,0,0,0,0,,,,,,,,,,,,,,,,,0,39,39,39,,,,,,,,,,,,,,,,,,,,,,,None,[],,0,[],,,,99,A,1,2019_Jun_29_1359,PM,3.0.6,60.03323008556002,
,,,Pictures/8496.jpg,,,PM_list_1.xlsx,PM_images_list_1.xlsx,cue words.xlsx,cue images.xlsx,recog_task.xlsx,recog_task_images1.xlsx,None,d,1,Hit,1,,,,,,,,,,,,,,,,,,,,,,,,,,,0,0,0,0,,,,,,,,,,,,,,,,,0,40,40,40,,,,,,,,,,,,,,,,,,,,,,,None,[],,0,[],,,,99,A,1,2019_Jun_29_1359,PM,3.0.6,60.03323008556002,
,,,Pictures/2341.jpg,,,PM_list_1.xlsx,PM_images_list_1.xlsx,cue words.xlsx,cue images.xlsx,recog_task.xlsx,recog_task_images1.xlsx,None,l,0,NoHit,1,,,,,,,,,,,,,,,,,,,,,,,,,,,0,0,0,0,,,,,,,,,,,,,,,,,0,41,41,41,,,,,,,,,,,,,,,,,,,,,,,None,[],,0,[],,,,99,A,1,2019_Jun_29_1359,PM,3.0.6,60.03323008556002,
,,,Pictures/9909.jpg,,,PM_list_1.xlsx,PM_images_list_1.xlsx,cue words.xlsx,cue images.xlsx,recog_task.xlsx,recog_task_images1.xlsx,None,h,5,NegH1,1,,,,,,,,,,,,,,,,,,,,,,,,,,,0,0,0,0,,,,,,,,,,,,,,,,,0,42,42,42,,,,,,,,,,,,,,,,,,,,,,,None,[],,0,0,,,,99,A,1,2019_Jun_29_1359,PM,3.0.6,60.03323008556002,
,,,Pictures/9001.jpg,,,PM_list_1.xlsx,PM_images_list_1.xlsx,cue words.xlsx,cue images.xlsx,recog_task.xlsx,recog_task_images1.xlsx,None,l,0,NoHit,1,,,,,,,,,,,,,,,,,,,,,,,,,,,0,0,0,0,,,,,,,,,,,,,,,,,0,43,43,43,,,,,,,,,,,,,,,,,,,,,,,None,[],,0,[],,,,99,A,1,2019_Jun_29_1359,PM,3.0.6,60.03323008556002,
,,,Pictures/9832.jpg,,,PM_list_1.xlsx,PM_images_list_1.xlsx,cue words.xlsx,cue images.xlsx,recog_task.xlsx,recog_task_images1.xlsx,None,l,0,NoHit,1,,,,,,,,,,,,,,,,,,,,,,,,,,,0,0,0,0,,,,,,,,,,,,,,,,,0,44,44,44,,,,,,,,,,,,,,,,,,,,,,,None,[],,0,[],,,,99,A,1,2019_Jun_29_1359,PM,3.0.6,60.03323008556002,
,,,Pictures/9001.jpg,,,PM_list_1.xlsx,PM_images_list_1.xlsx,cue words.xlsx,cue images.xlsx,recog_task.xlsx,recog_task_images1.xlsx,None,d,1,Hit,1,,,,,,,,,,,,,,,,,,,,,,,,,,,0,0,0,0,,,,,,,,,,,,,,,,,0,45,45,45,,,,,,,,,,,,,,,,,,,,,,,None,[],,0,[],,,,99,A,1,2019_Jun_29_1359,PM,3.0.6,60.03323008556002,
,,,Pictures/2750.jpg,,,PM_list_1.xlsx,PM_images_list_1.xlsx,cue words.xlsx,cue images.xlsx,recog_task.xlsx,recog_task_images1.xlsx,None,l,0,NoHit,1,,,,,,,,,,,,,,,,,,,,,,,,,,,0,0,0,0,,,,,,,,,,,,,,,,,0,46,46,46,,,,,,,,,,,,,,,,,,,,,,,None,[],,0,[],,,,99,A,1,2019_Jun_29_1359,PM,3.0.6,60.03323008556002,
,,,Pictures/8480.jpg,,,PM_list_1.xlsx,PM_images_list_1.xlsx,cue words.xlsx,cue images.xlsx,recog_task.xlsx,recog_task_images1.xlsx,None,l,0,NoHit,1,,,,,,,,,,,,,,,,,,,,,,,,,,,0,0,0,0,,,,,,,,,,,,,,,,,0,47,47,47,,,,,,,,,,,,,,,,,,,,,,,None,[],,0,[],,,,99,A,1,2019_Jun_29_1359,PM,3.0.6,60.03323008556002,
,,,Pictures/7830.jpg,,,PM_list_1.xlsx,PM_images_list_1.xlsx,cue words.xlsx,cue images.xlsx,recog_task.xlsx,recog_task_images1.xlsx,None,l,0,NoHit,1,,,,,,,,,,,,,,,,,,,,,,,,,,,0,0,0,0,,,,,,,,,,,,,,,,,0,48,48,48,,,,,,,,,,,,,,,,,,,,,,,None,[],,0,[],,,,99,A,1,2019_Jun_29_1359,PM,3.0.6,60.03323008556002,
,,,Pictures/8480.jpg,,,PM_list_1.xlsx,PM_images_list_1.xlsx,cue words.xlsx,cue images.xlsx,recog_task.xlsx,recog_task_images1.xlsx,None,d,1,Hit,1,,,,,,,,,,,,,,,,,,,,,,,,,,,0,0,0,0,,,,,,,,,,,,,,,,,0,49,49,49,,,,,,,,,,,,,,,,,,,,,,,None,[],,0,[],,,,99,A,1,2019_Jun_29_1359,PM,3.0.6,60.03323008556002,
,,,Pictures/2309.jpg,,,PM_list_1.xlsx,PM_images_list_1.xlsx,cue words.xlsx,cue images.xlsx,recog_task.xlsx,recog_task_images1.xlsx,None,l,0,NoHit,1,,,,,,,,,,,,,,,,,,,,,,,,,,,0,0,0,0,,,,,,,,,,,,,,,,,0,50,50,50,,,,,,,,,,,,,,,,,,,,,,,None,[],,0,[],,,,99,A,1,2019_Jun_29_1359,PM,3.0.6,60.03323008556002,
,,,Pictures/8192.jpg,,,PM_list_1.xlsx,PM_images_list_1.xlsx,cue words.xlsx,cue images.xlsx,recog_task.xlsx,recog_task_images1.xlsx,None,h,6,NeuH1,1,,,,,,,,,,,,,,,,,,,,,,,,,,,0,0,0,0,,,,,,,,,,,,,,,,,0,51,51,51,,,,,,,,,,,,,,,,,,,,,,,None,[],,0,0,,,,99,A,1,2019_Jun_29_1359,PM,3.0.6,60.03323008556002,
,,,Pictures/9265.jpg,,,PM_list_1.xlsx,PM_images_list_1.xlsx,cue words.xlsx,cue images.xlsx,recog_task.xlsx,recog_task_images1.xlsx,None,l,0,NoHit,1,,,,,,,,,,,,,,,,,,,,,,,,,,,0,0,0,0,,,,,,,,,,,,,,,,,0,52,52,52,,,,,,,,,,,,,,,,,,,,,,,None,[],,0,[],,,,99,A,1,2019_Jun_29_1359,PM,3.0.6,60.03323008556002,
,,,Pictures/1101.jpg,,,PM_list_1.xlsx,PM_images_list_1.xlsx,cue words.xlsx,cue images.xlsx,recog_task.xlsx,recog_task_images1.xlsx,None,l,0,NoHit,1,,,,,,,,,,,,,,,,,,,,,,,,,,,0,0,0,0,,,,,,,,,,,,,,,,,0,53,53,53,,,,,,,,,,,,,,,,,,,,,,,None,[],,0,[],,,,99,A,1,2019_Jun_29_1359,PM,3.0.6,60.03323008556002,
,,,Pictures/9265.jpg,,,PM_list_1.xlsx,PM_images_list_1.xlsx,cue words.xlsx,cue images.xlsx,recog_task.xlsx,recog_task_images1.xlsx,None,d,1,Hit,1,,,,,,,,,,,,,,,,,,,,,,,,,,,0,0,0,0,,,,,,,,,,,,,,,,,0,54,54,54,,,,,,,,,,,,,,,,,,,,,,,None,[],,0,[],,,,99,A,1,2019_Jun_29_1359,PM,3.0.6,60.03323008556002,
,,,Pictures/9832.jpg,,,PM_list_1.xlsx,PM_images_list_1.xlsx,cue words.xlsx,cue images.xlsx,recog_task.xlsx,recog_task_images1.xlsx,None,l,0,NoHit,1,,,,,,,,,,,,,,,,,,,,,,,,,,,0,0,0,0,,,,,,,,,,,,,,,,,0,55,55,55,,,,,,,,,,,,,,,,,,,,,,,None,[],,0,[],,,,99,A,1,2019_Jun_29_1359,PM,3.0.6,60.03323008556002,
,,,Pictures/5833.jpg,,,PM_list_1.xlsx,PM_images_list_1.xlsx,cue words.xlsx,cue images.xlsx,recog_task.xlsx,recog_task_images1.xlsx,None,l,0,NoHit,1,,,,,,,,,,,,,,,,,,,,,,,,,,,0,0,0,0,,,,,,,,,,,,,,,,,0,56,56,56,,,,,,,,,,,,,,,,,,,,,,,None,[],,0,[],,,,99,A,1,2019_Jun_29_1359,PM,3.0.6,60.03323008556002,
,,,Pictures/9904.jpg,,,PM_list_1.xlsx,PM_images_list_1.xlsx,cue words.xlsx,cue images.xlsx,recog_task.xlsx,recog_task_images1.xlsx,None,l,0,NoHit,1,,,,,,,,,,,,,,,,,,,,,,,,,,,0,0,0,0,,,,,,,,,,,,,,,,,0,57,57,57,,,,,,,,,,,,,,,,,,,,,,,None,[],,0,[],,,,99,A,1,2019_Jun_29_1359,PM,3.0.6,60.03323008556002,
,,,Pictures/8501.jpg,,,PM_list_1.xlsx,PM_images_list_1.xlsx,cue words.xlsx,cue images.xlsx,recog_task.xlsx,recog_task_images1.xlsx,None,l,0,NoHit,1,,,,,,,,,,,,,,,,,,,,,,,,,,,0,0,0,0,,,,,,,,,,,,,,,,,0,58,58,58,,,,,,,,,,,,,,,,,,,,,,,None,[],,0,[],,,,99,A,1,2019_Jun_29_1359,PM,3.0.6,60.03323008556002,
,,,Pictures/9904.jpg,,,PM_list_1.xlsx,PM_images_list_1.xlsx,cue words.xlsx,cue images.xlsx,recog_task.xlsx,recog_task_images1.xlsx,None,d,1,Hit,1,,,,,,,,,,,,,,,,,,,,,,,,,,,0,0,0,0,,,,,,,,,,,,,,,,,0,59,59,59,,,,,,,,,,,,,,,,,,,,,,,None,[],,0,[],,,,99,A,1,2019_Jun_29_1359,PM,3.0.6,60.03323008556002,
,,,Pictures/2301.jpg,,,PM_list_1.xlsx,PM_images_list_1.xlsx,cue words.xlsx,cue images.xlsx,recog_task.xlsx,recog_task_images1.xlsx,None,h,2,NegL1,1,,,,,,,,,,,,,,,,,,,,,,,,,,,0,0,0,0,,,,,,,,,,,,,,,,,0,60,60,60,,,,,,,,,,,,,,,,,,,,,,,None,[],,0,0,,,,99,A,1,2019_Jun_29_1359,PM,3.0.6,60.03323008556002,
,,,Pictures/1600.jpg,,,PM_list_1.xlsx,PM_images_list_1.xlsx,cue words.xlsx,cue images.xlsx,recog_task.xlsx,recog_task_images1.xlsx,None,l,0,NoHit,1,,,,,,,,,,,,,,,,,,,,,,,,,,,0,0,0,0,,,,,,,,,,,,,,,,,0,61,61,61,,,,,,,,,,,,,,,,,,,,,,,None,[],,0,[],,,,99,A,1,2019_Jun_29_1359,PM,3.0.6,60.03323008556002,
,,,Pictures/1303.jpg,,,PM_list_1.xlsx,PM_images_list_1.xlsx,cue words.xlsx,cue images.xlsx,recog_task.xlsx,recog_task_images1.xlsx,None,l,0,NoHit,1,,,,,,,,,,,,,,,,,,,,,,,,,,,0,0,0,0,,,,,,,,,,,,,,,,,0,62,62,62,,,,,,,,,,,,,,,,,,,,,,,None,[],,0,[],,,,99,A,1,2019_Jun_29_1359,PM,3.0.6,60.03323008556002,
,,,Pictures/1600.jpg,,,PM_list_1.xlsx,PM_images_list_1.xlsx,cue words.xlsx,cue images.xlsx,recog_task.xlsx,recog_task_images1.xlsx,None,d,1,Hit,1,,,,,,,,,,,,,,,,,,,,,,,,,,,0,0,0,0,,,,,,,,,,,,,,,,,0,63,63,63,,,,,,,,,,,,,,,,,,,,,,,None,[],,0,[],,,,99,A,1,2019_Jun_29_1359,PM,3.0.6,60.03323008556002,
,,,Pictures/6200.jpg,,,PM_list_1.xlsx,PM_images_list_1.xlsx,cue words.xlsx,cue images.xlsx,recog_task.xlsx,recog_task_images1.xlsx,None,l,0,NoHit,1,,,,,,,,,,,,,,,,,,,,,,,,,,,0,0,0,0,,,,,,,,,,,,,,,,,0,64,64,64,,,,,,,,,,,,,,,,,,,,,,,None,[],,0,[],,,,99,A,1,2019_Jun_29_1359,PM,3.0.6,60.03323008556002,
,,,Pictures/1321.jpg,,,PM_list_1.xlsx,PM_images_list_1.xlsx,cue words.xlsx,cue images.xlsx,recog_task.xlsx,recog_task_images1.xlsx,None,l,0,NoHit,1,,,,,,,,,,,,,,,,,,,,,,,,,,,0,0,0,0,,,,,,,,,,,,,,,,,0,65,65,65,,,,,,,,,,,,,,,,,,,,,,,None,[],,0,[],,,,99,A,1,2019_Jun_29_1359,PM,3.0.6,60.03323008556002,
,,,Pictures/6200.jpg,,,PM_list_1.xlsx,PM_images_list_1.xlsx,cue words.xlsx,cue images.xlsx,recog_task.xlsx,recog_task_images1.xlsx,None,d,1,Hit,1,,,,,,,,,,,,,,,,,,,,,,,,,,,0,0,0,0,,,,,,,,,,,,,,,,,0,66,66,66,,,,,,,,,,,,,,,,,,,,,,,None,[],,0,[],,,,99,A,1,2019_Jun_29_1359,PM,3.0.6,60.03323008556002,
,,,Pictures/2456.jpg,,,PM_list_1.xlsx,PM_images_list_1.xlsx,cue words.xlsx,cue images.xlsx,recog_task.xlsx,recog_task_images1.xlsx,None,l,0,NoHit,1,,,,,,,,,,,,,,,,,,,,,,,,,,,0,0,0,0,,,,,,,,,,,,,,,,,0,67,67,67,,,,,,,,,,,,,,,,,,,,,,,None,[],,0,[],,,,99,A,1,2019_Jun_29_1359,PM,3.0.6,60.03323008556002,
,,,Pictures/9400.jpg,,,PM_list_1.xlsx,PM_images_list_1.xlsx,cue words.xlsx,cue images.xlsx,recog_task.xlsx,recog_task_images1.xlsx,None,l,0,NoHit,1,,,,,,,,,,,,,,,,,,,,,,,,,,,0,0,0,0,,,,,,,,,,,,,,,,,0,68,68,68,,,,,,,,,,,,,,,,,,,,,,,None,[],,0,[],,,,99,A,1,2019_Jun_29_1359,PM,3.0.6,60.03323008556002,
,,,Pictures/7380.jpg,,,PM_list_1.xlsx,PM_images_list_1.xlsx,cue words.xlsx,cue images.xlsx,recog_task.xlsx,recog_task_images1.xlsx,None,l,0,NoHit,1,,,,,,,,,,,,,,,,,,,,,,,,,,,0,0,0,0,,,,,,,,,,,,,,,,,0,69,69,69,,,,,,,,,,,,,,,,,,,,,,,None,[],,0,[],,,,99,A,1,2019_Jun_29_1359,PM,3.0.6,60.03323008556002,
,,,Pictures/8192.jpg,,,PM_list_1.xlsx,PM_images_list_1.xlsx,cue words.xlsx,cue images.xlsx,recog_task.xlsx,recog_task_images1.xlsx,None,h,6,NeuH1,1,,,,,,,,,,,,,,,,,,,,,,,,,,,0,0,0,0,,,,,,,,,,,,,,,,,0,70,70,70,,,,,,,,,,,,,,,,,,,,,,,None,[],,0,0,,,,99,A,1,2019_Jun_29_1359,PM,3.0.6,60.03323008556002,
,,,Pictures/7380.jpg,,,PM_list_1.xlsx,PM_images_list_1.xlsx,cue words.xlsx,cue images.xlsx,recog_task.xlsx,recog_task_images1.xlsx,None,d,1,Hit,1,,,,,,,,,,,,,,,,,,,,,,,,,,,0,0,0,0,,,,,,,,,,,,,,,,,0,71,71,71,,,,,,,,,,,,,,,,,,,,,,,None,[],,0,[],,,,99,A,1,2019_Jun_29_1359,PM,3.0.6,60.03323008556002,
,,,Pictures/2341.jpg,,,PM_list_1.xlsx,PM_images_list_1.xlsx,cue words.xlsx,cue images.xlsx,recog_task.xlsx,recog_task_images1.xlsx,None,l,0,NoHit,1,,,,,,,,,,,,,,,,,,,,,,,,,,,0,0,0,0,,,,,,,,,,,,,,,,,0,72,72,72,,,,,,,,,,,,,,,,,,,,,,,None,[],,0,[],,,,99,A,1,2019_Jun_29_1359,PM,3.0.6,60.03323008556002,
,,,Pictures/3103.jpg,,,PM_list_1.xlsx,PM_images_list_1.xlsx,cue words.xlsx,cue images.xlsx,recog_task.xlsx,recog_task_images1.xlsx,None,l,0,NoHit,1,,,,,,,,,,,,,,,,,,,,,,,,,,,0,0,0,0,,,,,,,,,,,,,,,,,0,73,73,73,,,,,,,,,,,,,,,,,,,,,,,None,[],,0,[],,,,99,A,1,2019_Jun_29_1359,PM,3.0.6,60.03323008556002,
,,,Pictures/6213.jpg,,,PM_list_1.xlsx,PM_images_list_1.xlsx,cue words.xlsx,cue images.xlsx,recog_task.xlsx,recog_task_images1.xlsx,None,l,0,NoHit,1,,,,,,,,,,,,,,,,,,,,,,,,,,,0,0,0,0,,,,,,,,,,,,,,,,,0,74,74,74,,,,,,,,,,,,,,,,,,,,,,,None,[],,0,[],,,,99,A,1,2019_Jun_29_1359,PM,3.0.6,60.03323008556002,
,,,Pictures/1321.jpg,,,PM_list_1.xlsx,PM_images_list_1.xlsx,cue words.xlsx,cue images.xlsx,recog_task.xlsx,recog_task_images1.xlsx,None,l,0,NoHit,1,,,,,,,,,,,,,,,,,,,,,,,,,,,0,0,0,0,,,,,,,,,,,,,,,,,0,75,75,75,,,,,,,,,,,,,,,,,,,,,,,None,[],,0,[],,,,99,A,1,2019_Jun_29_1359,PM,3.0.6,60.03323008556002,
,,,Pictures/6213.jpg,,,PM_list_1.xlsx,PM_images_list_1.xlsx,cue words.xlsx,cue images.xlsx,recog_task.xlsx,recog_task_images1.xlsx,None,d,1,Hit,1,,,,,,,,,,,,,,,,,,,,,,,,,,,0,0,0,0,,,,,,,,,,,,,,,,,0,76,76,76,,,,,,,,,,,,,,,,,,,,,,,None,[],,0,[],,,,99,A,1,2019_Jun_29_1359,PM,3.0.6,60.03323008556002,
,,,Pictures/2456.jpg,,,PM_list_1.xlsx,PM_images_list_1.xlsx,cue words.xlsx,cue images.xlsx,recog_task.xlsx,recog_task_images1.xlsx,None,l,0,NoHit,1,,,,,,,,,,,,,,,,,,,,,,,,,,,0,0,0,0,,,,,,,,,,,,,,,,,0,77,77,77,,,,,,,,,,,,,,,,,,,,,,,None,[],,0,[],,,,99,A,1,2019_Jun_29_1359,PM,3.0.6,60.03323008556002,
,,,Pictures/9911.jpg,,,PM_list_1.xlsx,PM_images_list_1.xlsx,cue words.xlsx,cue images.xlsx,recog_task.xlsx,recog_task_images1.xlsx,None,l,0,NoHit,1,,,,,,,,,,,,,,,,,,,,,,,,,,,0,0,0,0,,,,,,,,,,,,,,,,,0,78,78,78,,,,,,,,,,,,,,,,,,,,,,,None,[],,0,[],,,,99,A,1,2019_Jun_29_1359,PM,3.0.6,60.03323008556002,
,,,Pictures/8034.jpg,,,PM_list_1.xlsx,PM_images_list_1.xlsx,cue words.xlsx,cue images.xlsx,recog_task.xlsx,recog_task_images1.xlsx,None,l,0,NoHit,1,,,,,,,,,,,,,,,,,,,,,,,,,,,0,0,0,0,,,,,,,,,,,,,,,,,0,79,79,79,,,,,,,,,,,,,,,,,,,,,,,None,[],,0,[],,,,99,A,1,2019_Jun_29_1359,PM,3.0.6,60.03323008556002,
,,,Pictures/2410.jpg,,,PM_list_1.xlsx,PM_images_list_1.xlsx,cue words.xlsx,cue images.xlsx,recog_task.xlsx,recog_task_images1.xlsx,None,l,0,NoHit,1,,,,,,,,,,,,,,,,,,,,,,,,,,,0,0,0,0,,,,,,,,,,,,,,,,,0,80,80,80,,,,,,,,,,,,,,,,,,,,,,,None,[],,0,[],,,,99,A,1,2019_Jun_29_1359,PM,3.0.6,60.03323008556002,
,,,Pictures/8034.jpg,,,PM_list_1.xlsx,PM_images_list_1.xlsx,cue words.xlsx,cue images.xlsx,recog_task.xlsx,recog_task_images1.xlsx,None,d,1,Hit,1,,,,,,,,,,,,,,,,,,,,,,,,,,,0,0,0,0,,,,,,,,,,,,,,,,,0,81,81,81,,,,,,,,,,,,,,,,,,,,,,,None,[],,0,[],,,,99,A,1,2019_Jun_29_1359,PM,3.0.6,60.03323008556002,
,,,Pictures/2151.jpg,,,PM_list_1.xlsx,PM_images_list_1.xlsx,cue words.xlsx,cue images.xlsx,recog_task.xlsx,recog_task_images1.xlsx,None,h,4,PosL1,1,,,,,,,,,,,,,,,,,,,,,,,,,,,0,0,0,0,,,,,,,,,,,,,,,,,0,82,82,82,,,,,,,,,,,,,,,,,,,,,,,None,[],,0,0,,,,99,A,1,2019_Jun_29_1359,PM,3.0.6,60.03323008556002,
,,,Pictures/1931.jpg,,,PM_list_1.xlsx,PM_images_list_1.xlsx,cue words.xlsx,cue images.xlsx,recog_task.xlsx,recog_task_images1.xlsx,None,l,0,NoHit,1,,,,,,,,,,,,,,,,,,,,,,,,,,,0,0,0,0,,,,,,,,,,,,,,,,,0,83,83,83,,,,,,,,,,,,,,,,,,,,,,,None,[],,0,[],,,,99,A,1,2019_Jun_29_1359,PM,3.0.6,60.03323008556002,
,,,Pictures/7830.jpg,,,PM_list_1.xlsx,PM_images_list_1.xlsx,cue words.xlsx,cue images.xlsx,recog_task.xlsx,recog_task_images1.xlsx,None,l,0,NoHit,1,,,,,,,,,,,,,,,,,,,,,,,,,,,0,0,0,0,,,,,,,,,,,,,,,,,0,84,84,84,,,,,,,,,,,,,,,,,,,,,,,None,[],,0,[],,,,99,A,1,2019_Jun_29_1359,PM,3.0.6,60.03323008556002,
,,,Pictures/1931.jpg,,,PM_list_1.xlsx,PM_images_list_1.xlsx,cue words.xlsx,cue images.xlsx,recog_task.xlsx,recog_task_images1.xlsx,None,d,1,Hit,1,,,,,,,,,,,,,,,,,,,,,,,,,,,0,0,0,0,,,,,,,,,,,,,,,,,0,85,85,85,,,,,,,,,,,,,,,,,,,,,,,None,[],,0,[],,,,99,A,1,2019_Jun_29_1359,PM,3.0.6,60.03323008556002,
,,,Pictures/7650.jpg,,,PM_list_1.xlsx,PM_images_list_1.xlsx,cue words.xlsx,cue images.xlsx,recog_task.xlsx,recog_task_images1.xlsx,None,l,0,NoHit,1,,,,,,,,,,,,,,,,,,,,,,,,,,,0,0,0,0,,,,,,,,,,,,,,,,,0,86,86,86,,,,,,,,,,,,,,,,,,,,,,,None,[],,0,[],,,,99,A,1,2019_Jun_29_1359,PM,3.0.6,60.03323008556002,
,,,Pictures/5395.jpg,,,PM_list_1.xlsx,PM_images_list_1.xlsx,cue words.xlsx,cue images.xlsx,recog_task.xlsx,recog_task_images1.xlsx,None,l,0,NoHit,1,,,,,,,,,,,,,,,,,,,,,,,,,,,0,0,0,0,,,,,,,,,,,,,,,,,0,87,87,87,,,,,,,,,,,,,,,,,,,,,,,None,[],,0,[],,,,99,A,1,2019_Jun_29_1359,PM,3.0.6,60.03323008556002,
,,,Pictures/2520.jpg,,,PM_list_1.xlsx,PM_images_list_1.xlsx,cue words.xlsx,cue images.xlsx,recog_task.xlsx,recog_task_images1.xlsx,None,l,0,NoHit,1,,,,,,,,,,,,,,,,,,,,,,,,,,,0,0,0,0,,,,,,,,,,,,,,,,,0,88,88,88,,,,,,,,,,,,,,,,,,,,,,,None,[],,0,[],,,,99,A,1,2019_Jun_29_1359,PM,3.0.6,60.03323008556002,
,,,Pictures/5395.jpg,,,PM_list_1.xlsx,PM_images_list_1.xlsx,cue words.xlsx,cue images.xlsx,recog_task.xlsx,recog_task_images1.xlsx,None,d,1,Hit,1,,,,,,,,,,,,,,,,,,,,,,,,,,,0,0,0,0,,,,,,,,,,,,,,,,,0,89,89,89,,,,,,,,,,,,,,,,,,,,,,,None,[],,0,[],,,,99,A,1,2019_Jun_29_1359,PM,3.0.6,60.03323008556002,
,,,Pictures/8090.jpg,,,PM_list_1.xlsx,PM_images_list_1.xlsx,cue words.xlsx,cue images.xlsx,recog_task.xlsx,recog_task_images1.xlsx,None,l,0,NoHit,1,,,,,,,,,,,,,,,,,,,,,,,,,,,0,0,0,0,,,,,,,,,,,,,,,,,0,90,90,90,,,,,,,,,,,,,,,,,,,,,,,None,[],,0,[],,,,99,A,1,2019_Jun_29_1359,PM,3.0.6,60.03323008556002,
,,,Pictures/6910.jpg,,,PM_list_1.xlsx,PM_images_list_1.xlsx,cue words.xlsx,cue images.xlsx,recog_task.xlsx,recog_task_images1.xlsx,None,l,0,NoHit,1,,,,,,,,,,,,,,,,,,,,,,,,,,,0,0,0,0,,,,,,,,,,,,,,,,,0,91,91,91,,,,,,,,,,,,,,,,,,,,,,,None,[],,0,[],,,,99,A,1,2019_Jun_29_1359,PM,3.0.6,60.03323008556002,
,,,Pictures/2274.jpg,,,PM_list_1.xlsx,PM_images_list_1.xlsx,cue words.xlsx,cue images.xlsx,recog_task.xlsx,recog_task_images1.xlsx,None,l,0,NoHit,1,,,,,,,,,,,,,,,,,,,,,,,,,,,0,0,0,0,,,,,,,,,,,,,,,,,0,92,92,92,,,,,,,,,,,,,,,,,,,,,,,None,[],,0,[],,,,99,A,1,2019_Jun_29_1359,PM,3.0.6,60.03323008556002,
,,,Pictures/2301.jpg,,,PM_list_1.xlsx,PM_images_list_1.xlsx,cue words.xlsx,cue images.xlsx,recog_task.xlsx,recog_task_images1.xlsx,None,h,2,NeGL1,1,,,,,,,,,,,,,,,,,,,,,,,,,,,0,0,0,0,,,,,,,,,,,,,,,,,0,93,93,93,,,,,,,,,,,,,,,,,,,,,,,None,[],,0,0,,,,99,A,1,2019_Jun_29_1359,PM,3.0.6,60.03323008556002,
,,,Pictures/2274.jpg,,,PM_list_1.xlsx,PM_images_list_1.xlsx,cue words.xlsx,cue images.xlsx,recog_task.xlsx,recog_task_images1.xlsx,None,d,1,Hit,1,,,,,,,,,,,,,,,,,,,,,,,,,,,0,0,0,0,,,,,,,,,,,,,,,,,0,94,94,94,,,,,,,,,,,,,,,,,,,,,,,None,[],,0,[],,,,99,A,1,2019_Jun_29_1359,PM,3.0.6,60.03323008556002,
,,,Pictures/2688.jpg,,,PM_list_1.xlsx,PM_images_list_1.xlsx,cue words.xlsx,cue images.xlsx,recog_task.xlsx,recog_task_images1.xlsx,None,l,0,NoHit,1,,,,,,,,,,,,,,,,,,,,,,,,,,,0,0,0,0,,,,,,,,,,,,,,,,,0,95,95,95,,,,,,,,,,,,,,,,,,,,,,,None,[],,0,[],,,,99,A,1,2019_Jun_29_1359,PM,3.0.6,60.03323008556002,
,,,Pictures/5260.jpg,,,PM_list_1.xlsx,PM_images_list_1.xlsx,cue words.xlsx,cue images.xlsx,recog_task.xlsx,recog_task_images1.xlsx,None,l,0,NoHit,1,,,,,,,,,,,,,,,,,,,,,,,,,,,0,0,0,0,,,,,,,,,,,,,,,,,0,96,96,96,,,,,,,,,,,,,,,,,,,,,,,None,[],,0,[],,,,99,A,1,2019_Jun_29_1359,PM,3.0.6,60.03323008556002,
,,,Pictures/8501.jpg,,,PM_list_1.xlsx,PM_images_list_1.xlsx,cue words.xlsx,cue images.xlsx,recog_task.xlsx,recog_task_images1.xlsx,None,l,0,NoHit,1,,,,,,,,,,,,,,,,,,,,,,,,,,,0,0,0,0,,,,,,,,,,,,,,,,,0,97,97,97,,,,,,,,,,,,,,,,,,,,,,,None,[],,0,[],,,,99,A,1,2019_Jun_29_1359,PM,3.0.6,60.03323008556002,
,,,Pictures/5260.jpg,,,PM_list_1.xlsx,PM_images_list_1.xlsx,cue words.xlsx,cue images.xlsx,recog_task.xlsx,recog_task_images1.xlsx,None,d,1,Hit,1,,,,,,,,,,,,,,,,,,,,,,,,,,,0,0,0,0,,,,,,,,,,,,,,,,,0,98,98,98,,,,,,,,,,,,,,,,,,,,,,,None,[],,0,[],,,,99,A,1,2019_Jun_29_1359,PM,3.0.6,60.03323008556002,
,,,Pictures/5460.jpg,,,PM_list_1.xlsx,PM_images_list_1.xlsx,cue words.xlsx,cue images.xlsx,recog_task.xlsx,recog_task_images1.xlsx,None,l,0,NoHit,1,,,,,,,,,,,,,,,,,,,,,,,,,,,0,0,0,0,,,,,,,,,,,,,,,,,0,99,99,99,,,,,,,,,,,,,,,,,,,,,,,None,[],,0,[],,,,99,A,1,2019_Jun_29_1359,PM,3.0.6,60.03323008556002,
,,,Pictures/8065.jpg,,,PM_list_1.xlsx,PM_images_list_1.xlsx,cue words.xlsx,cue images.xlsx,recog_task.xlsx,recog_task_images1.xlsx,None,l,0,NoHit,1,,,,,,,,,,,,,,,,,,,,,,,,,,,0,0,0,0,,,,,,,,,,,,,,,,,0,100,100,100,,,,,,,,,,,,,,,,,,,,,,,None,[],,0,[],,,,99,A,1,2019_Jun_29_1359,PM,3.0.6,60.03323008556002,
,,,Pictures/5460.jpg,,,PM_list_1.xlsx,PM_images_list_1.xlsx,cue words.xlsx,cue images.xlsx,recog_task.xlsx,recog_task_images1.xlsx,None,d,1,Hit,1,,,,,,,,,,,,,,,,,,,,,,,,,,,0,0,0,0,,,,,,,,,,,,,,,,,0,101,101,101,,,,,,,,,,,,,,,,,,,,,,,None,[],,0,[],,,,99,A,1,2019_Jun_29_1359,PM,3.0.6,60.03323008556002,
,,,Pictures/5831.jpg,,,PM_list_1.xlsx,PM_images_list_1.xlsx,cue words.xlsx,cue images.xlsx,recog_task.xlsx,recog_task_images1.xlsx,None,l,0,NoHit,1,,,,,,,,,,,,,,,,,,,,,,,,,,,0,0,0,0,,,,,,,,,,,,,,,,,0,102,102,102,,,,,,,,,,,,,,,,,,,,,,,None,[],,0,[],,,,99,A,1,2019_Jun_29_1359,PM,3.0.6,60.03323008556002,
,,,Pictures/1022.jpg,,,PM_list_1.xlsx,PM_images_list_1.xlsx,cue words.xlsx,cue images.xlsx,recog_task.xlsx,recog_task_images1.xlsx,None,l,0,NoHit,1,,,,,,,,,,,,,,,,,,,,,,,,,,,0,0,0,0,,,,,,,,,,,,,,,,,0,103,103,103,,,,,,,,,,,,,,,,,,,,,,,None,[],,0,[],,,,99,A,1,2019_Jun_29_1359,PM,3.0.6,60.03323008556002,
,,,Pictures/5831.jpg,,,PM_list_1.xlsx,PM_images_list_1.xlsx,cue words.xlsx,cue images.xlsx,recog_task.xlsx,recog_task_images1.xlsx,None,d,1,Hit,1,,,,,,,,,,,,,,,,,,,,,,,,,,,0,0,0,0,,,,,,,,,,,,,,,,,0,104,104,104,,,,,,,,,,,,,,,,,,,,,,,None,[],,0,[],,,,99,A,1,2019_Jun_29_1359,PM,3.0.6,60.03323008556002,
,,,Pictures/7405.jpg,,,PM_list_1.xlsx,PM_images_list_1.xlsx,cue words.xlsx,cue images.xlsx,recog_task.xlsx,recog_task_images1.xlsx,None,h,7,PosH1,1,,,,,,,,,,,,,,,,,,,,,,,,,,,0,0,0,0,,,,,,,,,,,,,,,,,0,105,105,105,,,,,,,,,,,,,,,,,,,,,,,None,[],,0,0,,,,99,A,1,2019_Jun_29_1359,PM,3.0.6,60.03323008556002,
,,,Pictures/2211.jpg,,,PM_list_1.xlsx,PM_images_list_1.xlsx,cue words.xlsx,cue images.xlsx,recog_task.xlsx,recog_task_images1.xlsx,None,l,0,NoHit,1,,,,,,,,,,,,,,,,,,,,,,,,,,,0,0,0,0,,,,,,,,,,,,,,,,,0,106,106,106,,,,,,,,,,,,,,,,,,,,,,,None,[],,0,[],,,,99,A,1,2019_Jun_29_1359,PM,3.0.6,60.03323008556002,
,,,Pictures/9330.jpg,,,PM_list_1.xlsx,PM_images_list_1.xlsx,cue words.xlsx,cue images.xlsx,recog_task.xlsx,recog_task_images1.xlsx,None,l,0,NoHit,1,,,,,,,,,,,,,,,,,,,,,,,,,,,0,0,0,0,,,,,,,,,,,,,,,,,0,107,107,107,,,,,,,,,,,,,,,,,,,,,,,None,[],,0,[],,,,99,A,1,2019_Jun_29_1359,PM,3.0.6,60.03323008556002,
,,,Pictures/6021.jpg,,,PM_list_1.xlsx,PM_images_list_1.xlsx,cue words.xlsx,cue images.xlsx,recog_task.xlsx,recog_task_images1.xlsx,None,l,0,NoHit,1,,,,,,,,,,,,,,,,,,,,,,,,,,,0,0,0,0,,,,,,,,,,,,,,,,,0,108,108,108,,,,,,,,,,,,,,,,,,,,,,,None,[],,0,[],,,,99,A,1,2019_Jun_29_1359,PM,3.0.6,60.03323008556002,
,,,Pictures/9330.jpg,,,PM_list_1.xlsx,PM_images_list_1.xlsx,cue words.xlsx,cue images.xlsx,recog_task.xlsx,recog_task_images1.xlsx,None,d,1,Hit,1,,,,,,,,,,,,,,,,,,,,,,,,,,,0,0,0,0,,,,,,,,,,,,,,,,,0,109,109,109,,,,,,,,,,,,,,,,,,,,,,,None,[],,0,[],,,,99,A,1,2019_Jun_29_1359,PM,3.0.6,60.03323008556002,
,,,Pictures/7650.jpg,,,PM_list_1.xlsx,PM_images_list_1.xlsx,cue words.xlsx,cue images.xlsx,recog_task.xlsx,recog_task_images1.xlsx,None,l,0,NoHit,1,,,,,,,,,,,,,,,,,,,,,,,,,,,0,0,0,0,,,,,,,,,,,,,,,,,0,110,110,110,,,,,,,,,,,,,,,,,,,,,,,None,[],,0,[],,,,99,A,1,2019_Jun_29_1359,PM,3.0.6,60.03323008556002,
,,,Pictures/1313.jpg,,,PM_list_1.xlsx,PM_images_list_1.xlsx,cue words.xlsx,cue images.xlsx,recog_task.xlsx,recog_task_images1.xlsx,None,l,0,NoHit,1,,,,,,,,,,,,,,,,,,,,,,,,,,,0,0,0,0,,,,,,,,,,,,,,,,,0,111,111,111,,,,,,,,,,,,,,,,,,,,,,,None,[],,0,[],,,,99,A,1,2019_Jun_29_1359,PM,3.0.6,60.03323008556002,
,,,Pictures/9400.jpg,,,PM_list_1.xlsx,PM_images_list_1.xlsx,cue words.xlsx,cue images.xlsx,recog_task.xlsx,recog_task_images1.xlsx,None,l,0,NoHit,1,,,,,,,,,,,,,,,,,,,,,,,,,,,0,0,0,0,,,,,,,,,,,,,,,,,0,112,112,112,,,,,,,,,,,,,,,,,,,,,,,None,[],,0,[],,,,99,A,1,2019_Jun_29_1359,PM,3.0.6,60.03323008556002,
,,,Pictures/1313.jpg,,,PM_list_1.xlsx,PM_images_list_1.xlsx,cue words.xlsx,cue images.xlsx,recog_task.xlsx,recog_task_images1.xlsx,None,d,1,Hit,1,,,,,,,,,,,,,,,,,,,,,,,,,,,0,0,0,0,,,,,,,,,,,,,,,,,0,113,113,113,,,,,,,,,,,,,,,,,,,,,,,None,[],,0,[],,,,99,A,1,2019_Jun_29_1359,PM,3.0.6,60.03323008556002,
,,,Pictures/5920.jpg,,,PM_list_1.xlsx,PM_images_list_1.xlsx,cue words.xlsx,cue images.xlsx,recog_task.xlsx,recog_task_images1.xlsx,None,l,0,NoHit,1,,,,,,,,,,,,,,,,,,,,,,,,,,,0,0,0,0,,,,,,,,,,,,,,,,,0,114,114,114,,,,,,,,,,,,,,,,,,,,,,,None,[],,0,[],,,,99,A,1,2019_Jun_29_1359,PM,3.0.6,60.03323008556002,
,,,Pictures/2222.jpg,,,PM_list_1.xlsx,PM_images_list_1.xlsx,cue words.xlsx,cue images.xlsx,recog_task.xlsx,recog_task_images1.xlsx,None,l,0,NoHit,1,,,,,,,,,,,,,,,,,,,,,,,,,,,0,0,0,0,,,,,,,,,,,,,,,,,0,115,115,115,,,,,,,,,,,,,,,,,,,,,,,None,[],,0,[],,,,99,A,1,2019_Jun_29_1359,PM,3.0.6,60.03323008556002,
,,,Pictures/1935.jpg,,,PM_list_1.xlsx,PM_images_list_1.xlsx,cue words.xlsx,cue images.xlsx,recog_task.xlsx,recog_task_images1.xlsx,None,l,0,NoHit,1,,,,,,,,,,,,,,,,,,,,,,,,,,,0,0,0,0,,,,,,,,,,,,,,,,,0,116,116,116,,,,,,,,,,,,,,,,,,,,,,,None,[],,0,[],,,,99,A,1,2019_Jun_29_1359,PM,3.0.6,60.03323008556002,
,,,Pictures/7042.jpg,,,PM_list_1.xlsx,PM_images_list_1.xlsx,cue words.xlsx,cue images.xlsx,recog_task.xlsx,recog_task_images1.xlsx,None,h,3,NeuL1,1,,,,,,,,,,,,,,,,,,,,,,,,,,,0,0,0,0,,,,,,,,,,,,,,,,,0,117,117,117,,,,,,,,,,,,,,,,,,,,,,,None,[],,0,0,,,,99,A,1,2019_Jun_29_1359,PM,3.0.6,60.03323008556002,
,,,Pictures/1935.jpg,,,PM_list_1.xlsx,PM_images_list_1.xlsx,cue words.xlsx,cue images.xlsx,recog_task.xlsx,recog_task_images1.xlsx,None,d,1,Hit,1,,,,,,,,,,,,,,,,,,,,,,,,,,,0,0,0,0,,,,,,,,,,,,,,,,,0,118,118,118,,,,,,,,,,,,,,,,,,,,,,,None,[],,0,[],,,,99,A,1,2019_Jun_29_1359,PM,3.0.6,60.03323008556002,
,,,Pictures/2410.jpg,,,PM_list_1.xlsx,PM_images_list_1.xlsx,cue words.xlsx,cue images.xlsx,recog_task.xlsx,recog_task_images1.xlsx,None,l,0,NoHit,1,,,,,,,,,,,,,,,,,,,,,,,,,,,0,0,0,0,,,,,,,,,,,,,,,,,0,119,119,119,,,,,,,,,,,,,,,,,,,,,,,None,[],,0,[],,,,99,A,1,2019_Jun_29_1359,PM,3.0.6,60.03323008556002,
,,,Pictures/2720.jpg,,,PM_list_1.xlsx,PM_images_list_1.xlsx,cue words.xlsx,cue images.xlsx,recog_task.xlsx,recog_task_images1.xlsx,None,l,0,NoHit,1,,,,,,,,,,,,,,,,,,,,,,,,,,,0,0,0,0,,,,,,,,,,,,,,,,,0,120,120,120,,,,,,,,,,,,,,,,,,,,,,,None,[],,0,[],,,,99,A,1,2019_Jun_29_1359,PM,3.0.6,60.03323008556002,
,,,Pictures/2590.jpg,,,PM_list_1.xlsx,PM_images_list_1.xlsx,cue words.xlsx,cue images.xlsx,recog_task.xlsx,recog_task_images1.xlsx,None,l,0,NoHit,1,,,,,,,,,,,,,,,,,,,,,,,,,,,0,0,0,0,,,,,,,,,,,,,,,,,0,121,121,121,,,,,,,,,,,,,,,,,,,,,,,None,[],,0,[],,,,99,A,1,2019_Jun_29_1359,PM,3.0.6,60.03323008556002,
,,,Pictures/6415.jpg,,,PM_list_1.xlsx,PM_images_list_1.xlsx,cue words.xlsx,cue images.xlsx,recog_task.xlsx,recog_task_images1.xlsx,None,l,0,NoHit,1,,,,,,,,,,,,,,,,,,,,,,,,,,,0,0,0,0,,,,,,,,,,,,,,,,,0,122,122,122,,,,,,,,,,,,,,,,,,,,,,,None,[],,0,[],,,,99,A,1,2019_Jun_29_1359,PM,3.0.6,60.03323008556002,
,,,Pictures/2590.jpg,,,PM_list_1.xlsx,PM_images_list_1.xlsx,cue words.xlsx,cue images.xlsx,recog_task.xlsx,recog_task_images1.xlsx,None,d,1,Hit,1,,,,,,,,,,,,,,,,,,,,,,,,,,,0,0,0,0,,,,,,,,,,,,,,,,,0,123,123,123,,,,,,,,,,,,,,,,,,,,,,,None,[],,0,[],,,,99,A,1,2019_Jun_29_1359,PM,3.0.6,60.03323008556002,
,,,Pictures/5920.jpg,,,PM_list_1.xlsx,PM_images_list_1.xlsx,cue words.xlsx,cue images.xlsx,recog_task.xlsx,recog_task_images1.xlsx,None,l,0,NoHit,1,,,,,,,,,,,,,,,,,,,,,,,,,,,0,0,0,0,,,,,,,,,,,,,,,,,0,124,124,124,,,,,,,,,,,,,,,,,,,,,,,None,[],,0,[],,,,99,A,1,2019_Jun_29_1359,PM,3.0.6,60.03323008556002,
,,,Pictures/2211.jpg,,,PM_list_1.xlsx,PM_images_list_1.xlsx,cue words.xlsx,cue images.xlsx,recog_task.xlsx,recog_task_images1.xlsx,None,l,0,NoHit,1,,,,,,,,,,,,,,,,,,,,,,,,,,,0,0,0,0,,,,,,,,,,,,,,,,,0,125,125,125,,,,,,,,,,,,,,,,,,,,,,,None,[],,0,[],,,,99,A,1,2019_Jun_29_1359,PM,3.0.6,60.03323008556002,
,,,Pictures/9909.jpg,,,PM_list_1.xlsx,PM_images_list_1.xlsx,cue words.xlsx,cue images.xlsx,recog_task.xlsx,recog_task_images1.xlsx,None,h,6,NegH1,1,,,,,,,,,,,,,,,,,,,,,,,,,,,0,0,0,0,,,,,,,,,,,,,,,,,0,126,126,126,,,,,,,,,,,,,,,,,,,,,,,None,[],,0,0,,,,99,A,1,2019_Jun_29_1359,PM,3.0.6,60.03323008556002,
,,,Pictures/6415.jpg,,,PM_list_1.xlsx,PM_images_list_1.xlsx,cue words.xlsx,cue images.xlsx,recog_task.xlsx,recog_task_images1.xlsx,None,l,0,NoHit,1,,,,,,,,,,,,,,,,,,,,,,,,,,,0,0,0,0,,,,,,,,,,,,,,,,,0,127,127,127,,,,,,,,,,,,,,,,,,,,,,,None,[],,0,[],,,,99,A,1,2019_Jun_29_1359,PM,3.0.6,60.03323008556002,
,,,Pictures/1122.jpg,,,PM_list_1.xlsx,PM_images_list_1.xlsx,cue words.xlsx,cue images.xlsx,recog_task.xlsx,recog_task_images1.xlsx,None,l,0,NoHit,1,,,,,,,,,,,,,,,,,,,,,,,,,,,0,0,0,0,,,,,,,,,,,,,,,,,0,128,128,128,,,,,,,,,,,,,,,,,,,,,,,None,[],,0,[],,,,99,A,1,2019_Jun_29_1359,PM,3.0.6,60.03323008556002,
,,,Pictures/6415.jpg,,,PM_list_1.xlsx,PM_images_list_1.xlsx,cue words.xlsx,cue images.xlsx,recog_task.xlsx,recog_task_images1.xlsx,None,d,1,Hit,1,,,,,,,,,,,,,,,,,,,,,,,,,,,0,0,0,0,,,,,,,,,,,,,,,,,0,129,129,129,,,,,,,,,,,,,,,,,,,,,,,None,[],,0,[],,,,99,A,1,2019_Jun_29_1359,PM,3.0.6,60.03323008556002,
,,,Pictures/9342.jpg,,,PM_list_1.xlsx,PM_images_list_1.xlsx,cue words.xlsx,cue images.xlsx,recog_task.xlsx,recog_task_images1.xlsx,None,l,0,NoHit,1,,,,,,,,,,,,,,,,,,,,,,,,,,,0,0,0,0,,,,,,,,,,,,,,,,,0,130,130,130,,,,,,,,,,,,,,,,,,,,,,,None,[],,0,[],,,,99,A,1,2019_Jun_29_1359,PM,3.0.6,60.03323008556002,
,,,Pictures/2650.jpg,,,PM_list_1.xlsx,PM_images_list_1.xlsx,cue words.xlsx,cue images.xlsx,recog_task.xlsx,recog_task_images1.xlsx,None,l,0,NoHit,1,,,,,,,,,,,,,,,,,,,,,,,,,,,0,0,0,0,,,,,,,,,,,,,,,,,0,131,131,131,,,,,,,,,,,,,,,,,,,,,,,None,[],,0,[],,,,99,A,1,2019_Jun_29_1359,PM,3.0.6,60.03323008556002,
,,,,,l,PM_list_1.xlsx,PM_images_list_1.xlsx,cue words.xlsx,cue images.xlsx,recog_task.xlsx,recog_task_images1.xlsx,,,,,,Pictures/5395.jpg,None,,,,,,,,,,,,,,,,,,,,,,,,,0,0,0,0,,,,,,,,,,,,,,,,,,,,,0,0,0,2,,,,,,,,,,,,,,,,,,,,,,,,l,1,8.990186680632178,99,A,1,2019_Jun_29_1359,PM,3.0.6,60.03323008556002,
,,,,,d,PM_list_1.xlsx,PM_images_list_1.xlsx,cue words.xlsx,cue images.xlsx,recog_task.xlsx,recog_task_images1.xlsx,,,,,,Pictures/2151.jpg,PosL2,,,,,,,,,,,,,,,,,,,,,,,,,0,0,0,0,,,,,,,,,,,,,,,,,,,,,0,1,1,7,,,,,,,,,,,,,,,,,,,,,,,,l,0,1.0341480758506805,99,A,1,2019_Jun_29_1359,PM,3.0.6,60.03323008556002,
,,,,,l,PM_list_1.xlsx,PM_images_list_1.xlsx,cue words.xlsx,cue images.xlsx,recog_task.xlsx,recog_task_images1.xlsx,,,,,,Pictures/1460.jpg,None,,,,,,,,,,,,,,,,,,,,,,,,,0,0,0,0,,,,,,,,,,,,,,,,,,,,,0,2,2,4,,,,,,,,,,,,,,,,,,,,,,,,l,1,0.715239089448005,99,A,1,2019_Jun_29_1359,PM,3.0.6,60.03323008556002,
,,,,,d,PM_list_1.xlsx,PM_images_list_1.xlsx,cue words.xlsx,cue images.xlsx,recog_task.xlsx,recog_task_images1.xlsx,,,,,,Pictures/7042.jpg,NeuL2,,,,,,,,,,,,,,,,,,,,,,,,,0,0,0,0,,,,,,,,,,,,,,,,,,,,,0,3,3,11,,,,,,,,,,,,,,,,,,,,,,,,l,0,1.3876500086626038,99,A,1,2019_Jun_29_1359,PM,3.0.6,60.03323008556002,
,,,,,d,PM_list_1.xlsx,PM_images_list_1.xlsx,cue words.xlsx,cue images.xlsx,recog_task.xlsx,recog_task_images1.xlsx,,,,,,Pictures/8192.jpg,NeuH2,,,,,,,,,,,,,,,,,,,,,,,,,0,0,0,0,,,,,,,,,,,,,,,,,,,,,0,4,4,3,,,,,,,,,,,,,,,,,,,,,,,,l,0,0.8181782496976666,99,A,1,2019_Jun_29_1359,PM,3.0.6,60.03323008556002,
,,,,,l,PM_list_1.xlsx,PM_images_list_1.xlsx,cue words.xlsx,cue images.xlsx,recog_task.xlsx,recog_task_images1.xlsx,,,,,,Pictures/9400.jpg,None,,,,,,,,,,,,,,,,,,,,,,,,,0,0,0,0,,,,,,,,,,,,,,,,,,,,,0,5,5,6,,,,,,,,,,,,,,,,,,,,,,,,l,1,1.6768948950921185,99,A,1,2019_Jun_29_1359,PM,3.0.6,60.03323008556002,
,,,,,d,PM_list_1.xlsx,PM_images_list_1.xlsx,cue words.xlsx,cue images.xlsx,recog_task.xlsx,recog_task_images1.xlsx,,,,,,Pictures/9909.jpg,NegH2,,,,,,,,,,,,,,,,,,,,,,,,,0,0,0,0,,,,,,,,,,,,,,,,,,,,,0,6,6,8,,,,,,,,,,,,,,,,,,,,,,,,l,0,1.0482542247045785,99,A,1,2019_Jun_29_1359,PM,3.0.6,60.03323008556002,
,,,,,l,PM_list_1.xlsx,PM_images_list_1.xlsx,cue words.xlsx,cue images.xlsx,recog_task.xlsx,recog_task_images1.xlsx,,,,,,Pictures/2456.jpg,None,,,,,,,,,,,,,,,,,,,,,,,,,0,0,0,0,,,,,,,,,,,,,,,,,,,,,0,7,7,1,,,,,,,,,,,,,,,,,,,,,,,,l,1,1.4880627369857393,99,A,1,2019_Jun_29_1359,PM,3.0.6,60.03323008556002,
,,,,,d,PM_list_1.xlsx,PM_images_list_1.xlsx,cue words.xlsx,cue images.xlsx,recog_task.xlsx,recog_task_images1.xlsx,,,,,,Pictures/7405.jpg,PosH2,,,,,,,,,,,,,,,,,,,,,,,,,0,0,0,0,,,,,,,,,,,,,,,,,,,,,0,8,8,5,,,,,,,,,,,,,,,,,,,,,,,,d,1,1.6485762153752148,99,A,1,2019_Jun_29_1359,PM,3.0.6,60.03323008556002,
,,,,,l,PM_list_1.xlsx,PM_images_list_1.xlsx,cue words.xlsx,cue images.xlsx,recog_task.xlsx,recog_task_images1.xlsx,,,,,,Pictures/7650.jpg,None,,,,,,,,,,,,,,,,,,,,,,,,,0,0,0,0,,,,,,,,,,,,,,,,,,,,,0,9,9,10,,,,,,,,,,,,,,,,,,,,,,,,l,1,0.8379988793167286,99,A,1,2019_Jun_29_1359,PM,3.0.6,60.03323008556002,
,,,,,l,PM_list_1.xlsx,PM_images_list_1.xlsx,cue words.xlsx,cue images.xlsx,recog_task.xlsx,recog_task_images1.xlsx,,,,,,Pictures/5920.jpg,None,,,,,,,,,,,,,,,,,,,,,,,,,0,0,0,0,,,,,,,,,,,,,,,,,,,,,0,10,10,9,,,,,,,,,,,,,,,,,,,,,,,,l,1,0.8945565943722613,99,A,1,2019_Jun_29_1359,PM,3.0.6,60.03323008556002,
,,,,,d,PM_list_1.xlsx,PM_images_list_1.xlsx,cue words.xlsx,cue images.xlsx,recog_task.xlsx,recog_task_images1.xlsx,,,,,,Pictures/2301.jpg,NegL1,,,,,,,,,,,,,,,,,,,,,,,,,0,0,0,0,,,,,,,,,,,,,,,,,,,,,0,11,11,0,,,,,,,,,,,,,,,,,,,,,,,,l,0,0.7756322479690425,99,A,1,2019_Jun_29_1359,PM,3.0.6,60.03323008556002,
,,,,,,PM_list_2.xlsx,PM_images_list_2.xlsx,cue words2.xlsx,cue images2.xlsx,recog_task2.xlsx,recog_task_images2.xlsx,Pictures/2230.jpg,,,,,,,,,,,,,,,,,,,,,,,,,,,,,,,0,1,1,1,0,0,0,0,,,,,,,,,,,,,,,,,,,,,,,,,,,,,,,,,,,,,,,,,,,,,,,99,A,1,2019_Jun_29_1359,PM,3.0.6,60.03323008556002,
,,,,,,PM_list_2.xlsx,PM_images_list_2.xlsx,cue words2.xlsx,cue images2.xlsx,recog_task2.xlsx,recog_task_images2.xlsx,Pictures/6900.jpg,,,,,,,,,,,,,,,,,,,,,,,,,,,,,,,0,1,1,1,0,1,1,3,,,,,,,,,,,,,,,,,,,,,,,,,,,,,,,,,,,,,,,,,,,,,,,99,A,1,2019_Jun_29_1359,PM,3.0.6,60.03323008556002,
,,,,,,PM_list_2.xlsx,PM_images_list_2.xlsx,cue words2.xlsx,cue images2.xlsx,recog_task2.xlsx,recog_task_images2.xlsx,Pictures/4625.jpg,,,,,,,,,,,,,,,,,,,,,,,,,,,,,,,0,1,1,1,0,2,2,1,,,,,,,,,,,,,,,,,,,,,,,,,,,,,,,,,,,,,,,,,,,,,,,99,A,1,2019_Jun_29_1359,PM,3.0.6,60.03323008556002,
,,,,,,PM_list_2.xlsx,PM_images_list_2.xlsx,cue words2.xlsx,cue images2.xlsx,recog_task2.xlsx,recog_task_images2.xlsx,Pictures/3550.jpg,,,,,,,,,,,,,,,,,,,,,,,,,,,,,,,0,1,1,1,0,3,3,5,,,,,,,,,,,,,,,,,,,,,,,,,,,,,,,,,,,,,,,,,,,,,,,99,A,1,2019_Jun_29_1359,PM,3.0.6,60.03323008556002,
,,,,,,PM_list_2.xlsx,PM_images_list_2.xlsx,cue words2.xlsx,cue images2.xlsx,recog_task2.xlsx,recog_task_images2.xlsx,Pictures/5594.jpg,,,,,,,,,,,,,,,,,,,,,,,,,,,,,,,0,1,1,1,0,4,4,2,,,,,,,,,,,,,,,,,,,,,,,,,,,,,,,,,,,,,,,,,,,,,,,99,A,1,2019_Jun_29_1359,PM,3.0.6,60.03323008556002,
,,,,,,PM_list_2.xlsx,PM_images_list_2.xlsx,cue words2.xlsx,cue images2.xlsx,recog_task2.xlsx,recog_task_images2.xlsx,Pictures/2722.jpg,,,,,,,,,,,,,,,,,,,,,,,,,,,,,,,0,1,1,1,0,5,5,4,,,,,,,,,,,,,,,,,,,,,,,,,,,,,,,,,,,,,,,,,,,,,,,99,A,1,2019_Jun_29_1359,PM,3.0.6,60.03323008556002,
,,,,,,PM_list_2.xlsx,PM_images_list_2.xlsx,cue words2.xlsx,cue images2.xlsx,recog_task2.xlsx,recog_task_images2.xlsx,Pictures/3550.jpg,,,,,,,,,,,,,,,,,,,,,,,,,,,,,,,0,1,1,1,,,,,0,0,0,5,,,,,,,,,,,,,,,,,,,,,,,,,,,,,,,,,,,,,,,,,,,99,A,1,2019_Jun_29_1359,PM,3.0.6,60.03323008556002,
,,,,,,PM_list_2.xlsx,PM_images_list_2.xlsx,cue words2.xlsx,cue images2.xlsx,recog_task2.xlsx,recog_task_images2.xlsx,Pictures/2230.jpg,,,,,,,,,,,,,,,,,,,,,,,,,,,,,,,0,1,1,1,,,,,0,1,1,0,,,,,,,,,,,,,,,,,,,,,,,,,,,,,,,,,,,,,,,,,,,99,A,1,2019_Jun_29_1359,PM,3.0.6,60.03323008556002,
,,,,,,PM_list_2.xlsx,PM_images_list_2.xlsx,cue words2.xlsx,cue images2.xlsx,recog_task2.xlsx,recog_task_images2.xlsx,Pictures/5594.jpg,,,,,,,,,,,,,,,,,,,,,,,,,,,,,,,0,1,1,1,,,,,0,2,2,2,,,,,,,,,,,,,,,,,,,,,,,,,,,,,,,,,,,,,,,,,,,99,A,1,2019_Jun_29_1359,PM,3.0.6,60.03323008556002,
,,,,,,PM_list_2.xlsx,PM_images_list_2.xlsx,cue words2.xlsx,cue images2.xlsx,recog_task2.xlsx,recog_task_images2.xlsx,Pictures/6900.jpg,,,,,,,,,,,,,,,,,,,,,,,,,,,,,,,0,1,1,1,,,,,0,3,3,3,,,,,,,,,,,,,,,,,,,,,,,,,,,,,,,,,,,,,,,,,,,99,A,1,2019_Jun_29_1359,PM,3.0.6,60.03323008556002,
,,,,,,PM_list_2.xlsx,PM_images_list_2.xlsx,cue words2.xlsx,cue images2.xlsx,recog_task2.xlsx,recog_task_images2.xlsx,Pictures/2722.jpg,,,,,,,,,,,,,,,,,,,,,,,,,,,,,,,0,1,1,1,,,,,0,4,4,4,,,,,,,,,,,,,,,,,,,,,,,,,,,,,,,,,,,,,,,,,,,99,A,1,2019_Jun_29_1359,PM,3.0.6,60.03323008556002,
,,,,,,PM_list_2.xlsx,PM_images_list_2.xlsx,cue words2.xlsx,cue images2.xlsx,recog_task2.xlsx,recog_task_images2.xlsx,Pictures/4625.jpg,,,,,,,,,,,,,,,,,,,,,,,,,,,,,,,0,1,1,1,,,,,0,5,5,1,,,,,,,,,,,,,,,,,,,,,,,,,,,,,,,,,,,,,,,,,,,99,A,1,2019_Jun_29_1359,PM,3.0.6,60.03323008556002,
,,,,,,PM_list_2.xlsx,PM_images_list_2.xlsx,cue words2.xlsx,cue images2.xlsx,recog_task2.xlsx,recog_task_images2.xlsx,,,,,,,,,,,,,,,,,,,,,,,,,,,,,,,,0,1,1,1,,,,,,,,,0,0,0,0,,,,,,,,,,,,,,,,,,,,,,,,,,,,,,,,,,,,,,,99,A,1,2019_Jun_29_1359,PM,3.0.6,60.03323008556002,
,,,Pictures/2332.jpg,,,PM_list_2.xlsx,PM_images_list_2.xlsx,cue words2.xlsx,cue images2.xlsx,recog_task2.xlsx,recog_task_images2.xlsx,Pictures/2230.jpg,l,0,NoHit,1,,,,,,,,,,,,,,,,,,,,,,,,,,,0,1,1,1,,,,,,,,,,,,,,,,,0,0,0,0,,,,,,,,,,,,,,,,,,,,,,,None,[],,0,[],,,,99,A,1,2019_Jun_29_1359,PM,3.0.6,60.03323008556002,
,,,Pictures/9331.jpg,,,PM_list_2.xlsx,PM_images_list_2.xlsx,cue words2.xlsx,cue images2.xlsx,recog_task2.xlsx,recog_task_images2.xlsx,Pictures/4625.jpg,l,0,NoHit,1,,,,,,,,,,,,,,,,,,,,,,,,,,,0,1,1,1,,,,,,,,,,,,,,,,,0,1,1,1,,,,,,,,,,,,,,,,,,,,,,,None,[],,0,[],,,,99,A,1,2019_Jun_29_1359,PM,3.0.6,60.03323008556002,
,,,Pictures/2487.jpg,,,PM_list_2.xlsx,PM_images_list_2.xlsx,cue words2.xlsx,cue images2.xlsx,recog_task2.xlsx,recog_task_images2.xlsx,Pictures/5594.jpg,l,0,NoHit,1,,,,,,,,,,,,,,,,,,,,,,,,,,,0,1,1,1,,,,,,,,,,,,,,,,,0,2,2,2,,,,,,,,,,,,,,,,,,,,,,,None,[],,0,[],,,,99,A,1,2019_Jun_29_1359,PM,3.0.6,60.03323008556002,
,,,Pictures/9331.jpg,,,PM_list_2.xlsx,PM_images_list_2.xlsx,cue words2.xlsx,cue images2.xlsx,recog_task2.xlsx,recog_task_images2.xlsx,Pictures/6900.jpg,d,1,Hit,1,,,,,,,,,,,,,,,,,,,,,,,,,,,0,1,1,1,,,,,,,,,,,,,,,,,0,3,3,3,,,,,,,,,,,,,,,,,,,,,,,['h'],[0.7109422777430154],0.7109422777430154,0,[],,,,99,A,1,2019_Jun_29_1359,PM,3.0.6,60.03323008556002,
,,,Pictures/5450.jpg,,,PM_list_2.xlsx,PM_images_list_2.xlsx,cue words2.xlsx,cue images2.xlsx,recog_task2.xlsx,recog_task_images2.xlsx,Pictures/2722.jpg,l,0,NoHit,1,,,,,,,,,,,,,,,,,,,,,,,,,,,0,1,1,1,,,,,,,,,,,,,,,,,0,4,4,4,,,,,,,,,,,,,,,,,,,,,,,None,[],,0,[],,,,99,A,1,2019_Jun_29_1359,PM,3.0.6,60.03323008556002,
,,,Pictures/8490.jpg,,,PM_list_2.xlsx,PM_images_list_2.xlsx,cue words2.xlsx,cue images2.xlsx,recog_task2.xlsx,recog_task_images2.xlsx,Pictures/3550.jpg,l,0,NoHit,1,,,,,,,,,,,,,,,,,,,,,,,,,,,0,1,1,1,,,,,,,,,,,,,,,,,0,5,5,5,,,,,,,,,,,,,,,,,,,,,,,None,[],,0,[],,,,99,A,1,2019_Jun_29_1359,PM,3.0.6,60.03323008556002,
,,,Pictures/5450.jpg,,,PM_list_2.xlsx,PM_images_list_2.xlsx,cue words2.xlsx,cue images2.xlsx,recog_task2.xlsx,recog_task_images2.xlsx,None,d,1,Hit,1,,,,,,,,,,,,,,,,,,,,,,,,,,,0,1,1,1,,,,,,,,,,,,,,,,,0,6,6,6,,,,,,,,,,,,,,,,,,,,,,,None,[],,0,[],,,,99,A,1,2019_Jun_29_1359,PM,3.0.6,60.03323008556002,
,,,Pictures/8080.jpg,,,PM_list_2.xlsx,PM_images_list_2.xlsx,cue words2.xlsx,cue images2.xlsx,recog_task2.xlsx,recog_task_images2.xlsx,None,l,0,NoHit,1,,,,,,,,,,,,,,,,,,,,,,,,,,,0,1,1,1,,,,,,,,,,,,,,,,,0,7,7,7,,,,,,,,,,,,,,,,,,,,,,,None,[],,0,[],,,,99,A,1,2019_Jun_29_1359,PM,3.0.6,60.03323008556002,
,,,Pictures/2260.jpg,,,PM_list_2.xlsx,PM_images_list_2.xlsx,cue words2.xlsx,cue images2.xlsx,recog_task2.xlsx,recog_task_images2.xlsx,None,l,0,NoHit,1,,,,,,,,,,,,,,,,,,,,,,,,,,,0,1,1,1,,,,,,,,,,,,,,,,,0,8,8,8,,,,,,,,,,,,,,,,,,,,,,,None,[],,0,[],,,,99,A,1,2019_Jun_29_1359,PM,3.0.6,60.03323008556002,
,,,Pictures/8080.jpg,,,PM_list_2.xlsx,PM_images_list_2.xlsx,cue words2.xlsx,cue images2.xlsx,recog_task2.xlsx,recog_task_images2.xlsx,None,d,1,Hit,1,,,,,,,,,,,,,,,,,,,,,,,,,,,0,1,1,1,,,,,,,,,,,,,,,,,0,9,9,9,,,,,,,,,,,,,,,,,,,,,,,None,[],,0,[],,,,99,A,1,2019_Jun_29_1359,PM,3.0.6,60.03323008556002,
,,,Pictures/2230.jpg,,,PM_list_2.xlsx,PM_images_list_2.xlsx,cue words2.xlsx,cue images2.xlsx,recog_task2.xlsx,recog_task_images2.xlsx,None,h,3,NeuL2,2,,,,,,,,,,,,,,,,,,,,,,,,,,,0,1,1,1,,,,,,,,,,,,,,,,,0,10,10,10,,,,,,,,,,,,,,,,,,,,,,,['d'],[0.42767412948887795],0.42767412948887795,0,0,,,,99,A,1,2019_Jun_29_1359,PM,3.0.6,60.03323008556002,
,,,Pictures/1726.jpg,,,PM_list_2.xlsx,PM_images_list_2.xlsx,cue words2.xlsx,cue images2.xlsx,recog_task2.xlsx,recog_task_images2.xlsx,None,l,0,NoHit,1,,,,,,,,,,,,,,,,,,,,,,,,,,,0,1,1,1,,,,,,,,,,,,,,,,,0,11,11,11,,,,,,,,,,,,,,,,,,,,,,,None,[],,0,[],,,,99,A,1,2019_Jun_29_1359,PM,3.0.6,60.03323008556002,
,,,Pictures/9220.jpg,,,PM_list_2.xlsx,PM_images_list_2.xlsx,cue words2.xlsx,cue images2.xlsx,recog_task2.xlsx,recog_task_images2.xlsx,None,l,0,NoHit,1,,,,,,,,,,,,,,,,,,,,,,,,,,,0,1,1,1,,,,,,,,,,,,,,,,,0,12,12,12,,,,,,,,,,,,,,,,,,,,,,,None,[],,0,[],,,,99,A,1,2019_Jun_29_1359,PM,3.0.6,60.03323008556002,
,,,Pictures/2683.jpg,,,PM_list_2.xlsx,PM_images_list_2.xlsx,cue words2.xlsx,cue images2.xlsx,recog_task2.xlsx,recog_task_images2.xlsx,None,l,0,NoHit,1,,,,,,,,,,,,,,,,,,,,,,,,,,,0,1,1,1,,,,,,,,,,,,,,,,,0,13,13,13,,,,,,,,,,,,,,,,,,,,,,,None,[],,0,[],,,,99,A,1,2019_Jun_29_1359,PM,3.0.6,60.03323008556002,
,,,Pictures/9220.jpg,,,PM_list_2.xlsx,PM_images_list_2.xlsx,cue words2.xlsx,cue images2.xlsx,recog_task2.xlsx,recog_task_images2.xlsx,None,d,1,Hit,1,,,,,,,,,,,,,,,,,,,,,,,,,,,0,1,1,1,,,,,,,,,,,,,,,,,0,14,14,14,,,,,,,,,,,,,,,,,,,,,,,None,[],,0,[],,,,99,A,1,2019_Jun_29_1359,PM,3.0.6,60.03323008556002,
,,,Pictures/8001.jpg,,,PM_list_2.xlsx,PM_images_list_2.xlsx,cue words2.xlsx,cue images2.xlsx,recog_task2.xlsx,recog_task_images2.xlsx,None,l,0,NoHit,1,,,,,,,,,,,,,,,,,,,,,,,,,,,0,1,1,1,,,,,,,,,,,,,,,,,0,15,15,15,,,,,,,,,,,,,,,,,,,,,,,None,[],,0,[],,,,99,A,1,2019_Jun_29_1359,PM,3.0.6,60.03323008556002,
,,,Pictures/1230.jpg,,,PM_list_2.xlsx,PM_images_list_2.xlsx,cue words2.xlsx,cue images2.xlsx,recog_task2.xlsx,recog_task_images2.xlsx,None,l,0,NoHit,1,,,,,,,,,,,,,,,,,,,,,,,,,,,0,1,1,1,,,,,,,,,,,,,,,,,0,16,16,16,,,,,,,,,,,,,,,,,,,,,,,None,[],,0,[],,,,99,A,1,2019_Jun_29_1359,PM,3.0.6,60.03323008556002,
,,,Pictures/8001.jpg,,,PM_list_2.xlsx,PM_images_list_2.xlsx,cue words2.xlsx,cue images2.xlsx,recog_task2.xlsx,recog_task_images2.xlsx,None,d,1,Hit,1,,,,,,,,,,,,,,,,,,,,,,,,,,,0,1,1,1,,,,,,,,,,,,,,,,,0,17,17,17,,,,,,,,,,,,,,,,,,,,,,,None,[],,0,[],,,,99,A,1,2019_Jun_29_1359,PM,3.0.6,60.03323008556002,
,,,Pictures/7640.jpg,,,PM_list_2.xlsx,PM_images_list_2.xlsx,cue words2.xlsx,cue images2.xlsx,recog_task2.xlsx,recog_task_images2.xlsx,None,l,0,NoHit,1,,,,,,,,,,,,,,,,,,,,,,,,,,,0,1,1,1,,,,,,,,,,,,,,,,,0,18,18,18,,,,,,,,,,,,,,,,,,,,,,,None,[],,0,[],,,,99,A,1,2019_Jun_29_1359,PM,3.0.6,60.03323008556002,
,,,Pictures/3211.jpg,,,PM_list_2.xlsx,PM_images_list_2.xlsx,cue words2.xlsx,cue images2.xlsx,recog_task2.xlsx,recog_task_images2.xlsx,None,l,0,NoHit,1,,,,,,,,,,,,,,,,,,,,,,,,,,,0,1,1,1,,,,,,,,,,,,,,,,,0,19,19,19,,,,,,,,,,,,,,,,,,,,,,,None,[],,0,[],,,,99,A,1,2019_Jun_29_1359,PM,3.0.6,60.03323008556002,
,,,Pictures/1500.jpg,,,PM_list_2.xlsx,PM_images_list_2.xlsx,cue words2.xlsx,cue images2.xlsx,recog_task2.xlsx,recog_task_images2.xlsx,None,l,0,NoHit,1,,,,,,,,,,,,,,,,,,,,,,,,,,,0,1,1,1,,,,,,,,,,,,,,,,,0,20,20,20,,,,,,,,,,,,,,,,,,,,,,,None,[],,0,[],,,,99,A,1,2019_Jun_29_1359,PM,3.0.6,60.03323008556002,
,,,Pictures/4625.jpg,,,PM_list_2.xlsx,PM_images_list_2.xlsx,cue words2.xlsx,cue images2.xlsx,recog_task2.xlsx,recog_task_images2.xlsx,None,h,7,PosH2,2,,,,,,,,,,,,,,,,,,,,,,,,,,,0,1,1,1,,,,,,,,,,,,,,,,,0,21,21,21,,,,,,,,,,,,,,,,,,,,,,,None,[],,0,0,,,,99,A,1,2019_Jun_29_1359,PM,3.0.6,60.03323008556002,
,,,Pictures/1500.jpg,,,PM_list_2.xlsx,PM_images_list_2.xlsx,cue words2.xlsx,cue images2.xlsx,recog_task2.xlsx,recog_task_images2.xlsx,None,d,1,Hit,1,,,,,,,,,,,,,,,,,,,,,,,,,,,0,1,1,1,,,,,,,,,,,,,,,,,0,22,22,22,,,,,,,,,,,,,,,,,,,,,,,None,[],,0,[],,,,99,A,1,2019_Jun_29_1359,PM,3.0.6,60.03323008556002,
,,,Pictures/2446.jpg,,,PM_list_2.xlsx,PM_images_list_2.xlsx,cue words2.xlsx,cue images2.xlsx,recog_task2.xlsx,recog_task_images2.xlsx,None,l,0,NoHit,1,,,,,,,,,,,,,,,,,,,,,,,,,,,0,1,1,1,,,,,,,,,,,,,,,,,0,23,23,23,,,,,,,,,,,,,,,,,,,,,,,None,[],,0,[],,,,99,A,1,2019_Jun_29_1359,PM,3.0.6,60.03323008556002,
,,,Pictures/6022.jpg,,,PM_list_2.xlsx,PM_images_list_2.xlsx,cue words2.xlsx,cue images2.xlsx,recog_task2.xlsx,recog_task_images2.xlsx,None,l,0,NoHit,1,,,,,,,,,,,,,,,,,,,,,,,,,,,0,1,1,1,,,,,,,,,,,,,,,,,0,24,24,24,,,,,,,,,,,,,,,,,,,,,,,None,[],,0,[],,,,99,A,1,2019_Jun_29_1359,PM,3.0.6,60.03323008556002,
,,,Pictures/5629.jpg,,,PM_list_2.xlsx,PM_images_list_2.xlsx,cue words2.xlsx,cue images2.xlsx,recog_task2.xlsx,recog_task_images2.xlsx,None,l,0,NoHit,1,,,,,,,,,,,,,,,,,,,,,,,,,,,0,1,1,1,,,,,,,,,,,,,,,,,0,25,25,25,,,,,,,,,,,,,,,,,,,,,,,None,[],,0,[],,,,99,A,1,2019_Jun_29_1359,PM,3.0.6,60.03323008556002,
,,,Pictures/6022.jpg,,,PM_list_2.xlsx,PM_images_list_2.xlsx,cue words2.xlsx,cue images2.xlsx,recog_task2.xlsx,recog_task_images2.xlsx,None,d,1,Hit,1,,,,,,,,,,,,,,,,,,,,,,,,,,,0,1,1,1,,,,,,,,,,,,,,,,,0,26,26,26,,,,,,,,,,,,,,,,,,,,,,,None,[],,0,[],,,,99,A,1,2019_Jun_29_1359,PM,3.0.6,60.03323008556002,
,,,Pictures/8010.jpg,,,PM_list_2.xlsx,PM_images_list_2.xlsx,cue words2.xlsx,cue images2.xlsx,recog_task2.xlsx,recog_task_images2.xlsx,None,l,0,NoHit,1,,,,,,,,,,,,,,,,,,,,,,,,,,,0,1,1,1,,,,,,,,,,,,,,,,,0,27,27,27,,,,,,,,,,,,,,,,,,,,,,,None,[],,0,[],,,,99,A,1,2019_Jun_29_1359,PM,3.0.6,60.03323008556002,
,,,Pictures/8160.jpg,,,PM_list_2.xlsx,PM_images_list_2.xlsx,cue words2.xlsx,cue images2.xlsx,recog_task2.xlsx,recog_task_images2.xlsx,None,l,0,NoHit,1,,,,,,,,,,,,,,,,,,,,,,,,,,,0,1,1,1,,,,,,,,,,,,,,,,,0,28,28,28,,,,,,,,,,,,,,,,,,,,,,,None,[],,0,[],,,,99,A,1,2019_Jun_29_1359,PM,3.0.6,60.03323008556002,
,,,Pictures/5621.jpg,,,PM_list_2.xlsx,PM_images_list_2.xlsx,cue words2.xlsx,cue images2.xlsx,recog_task2.xlsx,recog_task_images2.xlsx,None,l,0,NoHit,1,,,,,,,,,,,,,,,,,,,,,,,,,,,0,1,1,1,,,,,,,,,,,,,,,,,0,29,29,29,,,,,,,,,,,,,,,,,,,,,,,None,[],,0,[],,,,99,A,1,2019_Jun_29_1359,PM,3.0.6,60.03323008556002,
,,,Pictures/8160.jpg,,,PM_list_2.xlsx,PM_images_list_2.xlsx,cue words2.xlsx,cue images2.xlsx,recog_task2.xlsx,recog_task_images2.xlsx,None,d,1,Hit,1,,,,,,,,,,,,,,,,,,,,,,,,,,,0,1,1,1,,,,,,,,,,,,,,,,,0,30,30,30,,,,,,,,,,,,,,,,,,,,,,,None,[],,0,[],,,,99,A,1,2019_Jun_29_1359,PM,3.0.6,60.03323008556002,
,,,Pictures/5594.jpg,,,PM_list_2.xlsx,PM_images_list_2.xlsx,cue words2.xlsx,cue images2.xlsx,recog_task2.xlsx,recog_task_images2.xlsx,None,h,4,PosL2,2,,,,,,,,,,,,,,,,,,,,,,,,,,,0,1,1,1,,,,,,,,,,,,,,,,,0,31,31,31,,,,,,,,,,,,,,,,,,,,,,,None,[],,0,0,,,,99,A,1,2019_Jun_29_1359,PM,3.0.6,60.03323008556002,
,,,Pictures/9905.jpg,,,PM_list_2.xlsx,PM_images_list_2.xlsx,cue words2.xlsx,cue images2.xlsx,recog_task2.xlsx,recog_task_images2.xlsx,None,l,0,NoHit,1,,,,,,,,,,,,,,,,,,,,,,,,,,,0,1,1,1,,,,,,,,,,,,,,,,,0,32,32,32,,,,,,,,,,,,,,,,,,,,,,,None,[],,0,[],,,,99,A,1,2019_Jun_29_1359,PM,3.0.6,60.03323008556002,
,,,Pictures/8499.jpg,,,PM_list_2.xlsx,PM_images_list_2.xlsx,cue words2.xlsx,cue images2.xlsx,recog_task2.xlsx,recog_task_images2.xlsx,None,l,0,NoHit,1,,,,,,,,,,,,,,,,,,,,,,,,,,,0,1,1,1,,,,,,,,,,,,,,,,,0,33,33,33,,,,,,,,,,,,,,,,,,,,,,,None,[],,0,[],,,,99,A,1,2019_Jun_29_1359,PM,3.0.6,60.03323008556002,
,,,Pictures/9031.jpg,,,PM_list_2.xlsx,PM_images_list_2.xlsx,cue words2.xlsx,cue images2.xlsx,recog_task2.xlsx,recog_task_images2.xlsx,None,l,0,NoHit,1,,,,,,,,,,,,,,,,,,,,,,,,,,,0,1,1,1,,,,,,,,,,,,,,,,,0,34,34,34,,,,,,,,,,,,,,,,,,,,,,,None,[],,0,[],,,,99,A,1,2019_Jun_29_1359,PM,3.0.6,60.03323008556002,
,,,Pictures/8499.jpg,,,PM_list_2.xlsx,PM_images_list_2.xlsx,cue words2.xlsx,cue images2.xlsx,recog_task2.xlsx,recog_task_images2.xlsx,None,d,1,Hit,1,,,,,,,,,,,,,,,,,,,,,,,,,,,0,1,1,1,,,,,,,,,,,,,,,,,0,35,35,35,,,,,,,,,,,,,,,,,,,,,,,None,[],,0,[],,,,99,A,1,2019_Jun_29_1359,PM,3.0.6,60.03323008556002,
,,,Pictures/1903.jpg,,,PM_list_2.xlsx,PM_images_list_2.xlsx,cue words2.xlsx,cue images2.xlsx,recog_task2.xlsx,recog_task_images2.xlsx,None,l,0,NoHit,1,,,,,,,,,,,,,,,,,,,,,,,,,,,0,1,1,1,,,,,,,,,,,,,,,,,0,36,36,36,,,,,,,,,,,,,,,,,,,,,,,None,[],,0,[],,,,99,A,1,2019_Jun_29_1359,PM,3.0.6,60.03323008556002,
,,,Pictures/9280.jpg,,,PM_list_2.xlsx,PM_images_list_2.xlsx,cue words2.xlsx,cue images2.xlsx,recog_task2.xlsx,recog_task_images2.xlsx,None,l,0,NoHit,1,,,,,,,,,,,,,,,,,,,,,,,,,,,0,1,1,1,,,,,,,,,,,,,,,,,0,37,37,37,,,,,,,,,,,,,,,,,,,,,,,None,[],,0,[],,,,99,A,1,2019_Jun_29_1359,PM,3.0.6,60.03323008556002,
,,,Pictures/1945.jpg,,,PM_list_2.xlsx,PM_images_list_2.xlsx,cue words2.xlsx,cue images2.xlsx,recog_task2.xlsx,recog_task_images2.xlsx,None,l,0,NoHit,1,,,,,,,,,,,,,,,,,,,,,,,,,,,0,1,1,1,,,,,,,,,,,,,,,,,0,38,38,38,,,,,,,,,,,,,,,,,,,,,,,None,[],,0,[],,,,99,A,1,2019_Jun_29_1359,PM,3.0.6,60.03323008556002,
,,,Pictures/2310.jpg,,,PM_list_2.xlsx,PM_images_list_2.xlsx,cue words2.xlsx,cue images2.xlsx,recog_task2.xlsx,recog_task_images2.xlsx,None,l,0,NoHit,1,,,,,,,,,,,,,,,,,,,,,,,,,,,0,1,1,1,,,,,,,,,,,,,,,,,0,39,39,39,,,,,,,,,,,,,,,,,,,,,,,None,[],,0,[],,,,99,A,1,2019_Jun_29_1359,PM,3.0.6,60.03323008556002,
,,,Pictures/1945.jpg,,,PM_list_2.xlsx,PM_images_list_2.xlsx,cue words2.xlsx,cue images2.xlsx,recog_task2.xlsx,recog_task_images2.xlsx,None,d,1,Hit,1,,,,,,,,,,,,,,,,,,,,,,,,,,,0,1,1,1,,,,,,,,,,,,,,,,,0,40,40,40,,,,,,,,,,,,,,,,,,,,,,,None,[],,0,[],,,,99,A,1,2019_Jun_29_1359,PM,3.0.6,60.03323008556002,
,,,Pictures/1726.jpg,,,PM_list_2.xlsx,PM_images_list_2.xlsx,cue words2.xlsx,cue images2.xlsx,recog_task2.xlsx,recog_task_images2.xlsx,None,l,0,NoHit,1,,,,,,,,,,,,,,,,,,,,,,,,,,,0,1,1,1,,,,,,,,,,,,,,,,,0,41,41,41,,,,,,,,,,,,,,,,,,,,,,,None,[],,0,[],,,,99,A,1,2019_Jun_29_1359,PM,3.0.6,60.03323008556002,
,,,Pictures/6900.jpg,,,PM_list_2.xlsx,PM_images_list_2.xlsx,cue words2.xlsx,cue images2.xlsx,recog_task2.xlsx,recog_task_images2.xlsx,None,h,6,NeuH2,2,,,,,,,,,,,,,,,,,,,,,,,,,,,0,1,1,1,,,,,,,,,,,,,,,,,0,42,42,42,,,,,,,,,,,,,,,,,,,,,,,None,[],,0,0,,,,99,A,1,2019_Jun_29_1359,PM,3.0.6,60.03323008556002,
,,,Pictures/6212.jpg,,,PM_list_2.xlsx,PM_images_list_2.xlsx,cue words2.xlsx,cue images2.xlsx,recog_task2.xlsx,recog_task_images2.xlsx,None,l,0,NoHit,1,,,,,,,,,,,,,,,,,,,,,,,,,,,0,1,1,1,,,,,,,,,,,,,,,,,0,43,43,43,,,,,,,,,,,,,,,,,,,,,,,None,[],,0,[],,,,99,A,1,2019_Jun_29_1359,PM,3.0.6,60.03323008556002,
,,,Pictures/9031.jpg,,,PM_list_2.xlsx,PM_images_list_2.xlsx,cue words2.xlsx,cue images2.xlsx,recog_task2.xlsx,recog_task_images2.xlsx,None,l,0,NoHit,1,,,,,,,,,,,,,,,,,,,,,,,,,,,0,1,1,1,,,,,,,,,,,,,,,,,0,44,44,44,,,,,,,,,,,,,,,,,,,,,,,None,[],,0,[],,,,99,A,1,2019_Jun_29_1359,PM,3.0.6,60.03323008556002,
,,,Pictures/6212.jpg,,,PM_list_2.xlsx,PM_images_list_2.xlsx,cue words2.xlsx,cue images2.xlsx,recog_task2.xlsx,recog_task_images2.xlsx,None,d,1,Hit,1,,,,,,,,,,,,,,,,,,,,,,,,,,,0,1,1,1,,,,,,,,,,,,,,,,,0,45,45,45,,,,,,,,,,,,,,,,,,,,,,,None,[],,0,[],,,,99,A,1,2019_Jun_29_1359,PM,3.0.6,60.03323008556002,
,,,Pictures/1080.jpg,,,PM_list_2.xlsx,PM_images_list_2.xlsx,cue words2.xlsx,cue images2.xlsx,recog_task2.xlsx,recog_task_images2.xlsx,None,l,0,NoHit,1,,,,,,,,,,,,,,,,,,,,,,,,,,,0,1,1,1,,,,,,,,,,,,,,,,,0,46,46,46,,,,,,,,,,,,,,,,,,,,,,,None,[],,0,[],,,,99,A,1,2019_Jun_29_1359,PM,3.0.6,60.03323008556002,
,,,Pictures/5535.jpg,,,PM_list_2.xlsx,PM_images_list_2.xlsx,cue words2.xlsx,cue images2.xlsx,recog_task2.xlsx,recog_task_images2.xlsx,None,l,0,NoHit,1,,,,,,,,,,,,,,,,,,,,,,,,,,,0,1,1,1,,,,,,,,,,,,,,,,,0,47,47,47,,,,,,,,,,,,,,,,,,,,,,,None,[],,0,[],,,,99,A,1,2019_Jun_29_1359,PM,3.0.6,60.03323008556002,
,,,Pictures/2205.jpg,,,PM_list_2.xlsx,PM_images_list_2.xlsx,cue words2.xlsx,cue images2.xlsx,recog_task2.xlsx,recog_task_images2.xlsx,None,l,0,NoHit,1,,,,,,,,,,,,,,,,,,,,,,,,,,,0,1,1,1,,,,,,,,,,,,,,,,,0,48,48,48,,,,,,,,,,,,,,,,,,,,,,,None,[],,0,[],,,,99,A,1,2019_Jun_29_1359,PM,3.0.6,60.03323008556002,
,,,Pictures/5535.jpg,,,PM_list_2.xlsx,PM_images_list_2.xlsx,cue words2.xlsx,cue images2.xlsx,recog_task2.xlsx,recog_task_images2.xlsx,None,d,1,Hit,1,,,,,,,,,,,,,,,,,,,,,,,,,,,0,1,1,1,,,,,,,,,,,,,,,,,0,49,49,49,,,,,,,,,,,,,,,,,,,,,,,None,[],,0,[],,,,99,A,1,2019_Jun_29_1359,PM,3.0.6,60.03323008556002,
,,,Pictures/6530.jpg,,,PM_list_2.xlsx,PM_images_list_2.xlsx,cue words2.xlsx,cue images2.xlsx,recog_task2.xlsx,recog_task_images2.xlsx,None,l,0,NoHit,1,,,,,,,,,,,,,,,,,,,,,,,,,,,0,1,1,1,,,,,,,,,,,,,,,,,0,50,50,50,,,,,,,,,,,,,,,,,,,,,,,None,[],,0,[],,,,99,A,1,2019_Jun_29_1359,PM,3.0.6,60.03323008556002,
,,,Pictures/2722.jpg,,,PM_list_2.xlsx,PM_images_list_2.xlsx,cue words2.xlsx,cue images2.xlsx,recog_task2.xlsx,recog_task_images2.xlsx,None,h,2,NegL2,2,,,,,,,,,,,,,,,,,,,,,,,,,,,0,1,1,1,,,,,,,,,,,,,,,,,0,51,51,51,,,,,,,,,,,,,,,,,,,,,,,None,[],,0,0,,,,99,A,1,2019_Jun_29_1359,PM,3.0.6,60.03323008556002,
,,,Pictures/7270.jpg,,,PM_list_2.xlsx,PM_images_list_2.xlsx,cue words2.xlsx,cue images2.xlsx,recog_task2.xlsx,recog_task_images2.xlsx,None,l,0,NoHit,1,,,,,,,,,,,,,,,,,,,,,,,,,,,0,1,1,1,,,,,,,,,,,,,,,,,0,52,52,52,,,,,,,,,,,,,,,,,,,,,,,None,[],,0,[],,,,99,A,1,2019_Jun_29_1359,PM,3.0.6,60.03323008556002,
,,,Pictures/5621.jpg,,,PM_list_2.xlsx,PM_images_list_2.xlsx,cue words2.xlsx,cue images2.xlsx,recog_task2.xlsx,recog_task_images2.xlsx,None,l,0,NoHit,1,,,,,,,,,,,,,,,,,,,,,,,,,,,0,1,1,1,,,,,,,,,,,,,,,,,0,53,53,53,,,,,,,,,,,,,,,,,,,,,,,None,[],,0,[],,,,99,A,1,2019_Jun_29_1359,PM,3.0.6,60.03323008556002,
,,,Pictures/7270.jpg,,,PM_list_2.xlsx,PM_images_list_2.xlsx,cue words2.xlsx,cue images2.xlsx,recog_task2.xlsx,recog_task_images2.xlsx,None,d,1,Hit,1,,,,,,,,,,,,,,,,,,,,,,,,,,,0,1,1,1,,,,,,,,,,,,,,,,,0,54,54,54,,,,,,,,,,,,,,,,,,,,,,,None,[],,0,[],,,,99,A,1,2019_Jun_29_1359,PM,3.0.6,60.03323008556002,
,,,Pictures/2810.jpg,,,PM_list_2.xlsx,PM_images_list_2.xlsx,cue words2.xlsx,cue images2.xlsx,recog_task2.xlsx,recog_task_images2.xlsx,None,l,0,NoHit,1,,,,,,,,,,,,,,,,,,,,,,,,,,,0,1,1,1,,,,,,,,,,,,,,,,,0,55,55,55,,,,,,,,,,,,,,,,,,,,,,,None,[],,0,[],,,,99,A,1,2019_Jun_29_1359,PM,3.0.6,60.03323008556002,
,,,Pictures/7502.jpg,,,PM_list_2.xlsx,PM_images_list_2.xlsx,cue words2.xlsx,cue images2.xlsx,recog_task2.xlsx,recog_task_images2.xlsx,None,l,0,NoHit,1,,,,,,,,,,,,,,,,,,,,,,,,,,,0,1,1,1,,,,,,,,,,,,,,,,,0,56,56,56,,,,,,,,,,,,,,,,,,,,,,,None,[],,0,[],,,,99,A,1,2019_Jun_29_1359,PM,3.0.6,60.03323008556002,
,,,Pictures/1302.jpg,,,PM_list_2.xlsx,PM_images_list_2.xlsx,cue words2.xlsx,cue images2.xlsx,recog_task2.xlsx,recog_task_images2.xlsx,None,l,0,NoHit,1,,,,,,,,,,,,,,,,,,,,,,,,,,,0,1,1,1,,,,,,,,,,,,,,,,,0,57,57,57,,,,,,,,,,,,,,,,,,,,,,,None,[],,0,[],,,,99,A,1,2019_Jun_29_1359,PM,3.0.6,60.03323008556002,
,,,Pictures/2216.jpg,,,PM_list_2.xlsx,PM_images_list_2.xlsx,cue words2.xlsx,cue images2.xlsx,recog_task2.xlsx,recog_task_images2.xlsx,None,l,0,NoHit,1,,,,,,,,,,,,,,,,,,,,,,,,,,,0,1,1,1,,,,,,,,,,,,,,,,,0,58,58,58,,,,,,,,,,,,,,,,,,,,,,,None,[],,0,[],,,,99,A,1,2019_Jun_29_1359,PM,3.0.6,60.03323008556002,
,,,Pictures/1302.jpg,,,PM_list_2.xlsx,PM_images_list_2.xlsx,cue words2.xlsx,cue images2.xlsx,recog_task2.xlsx,recog_task_images2.xlsx,None,d,1,Hit,1,,,,,,,,,,,,,,,,,,,,,,,,,,,0,1,1,1,,,,,,,,,,,,,,,,,0,59,59,59,,,,,,,,,,,,,,,,,,,,,,,None,[],,0,[],,,,99,A,1,2019_Jun_29_1359,PM,3.0.6,60.03323008556002,
,,,Pictures/3550.jpg,,,PM_list_2.xlsx,PM_images_list_2.xlsx,cue words2.xlsx,cue images2.xlsx,recog_task2.xlsx,recog_task_images2.xlsx,None,h,5,NegH2,2,,,,,,,,,,,,,,,,,,,,,,,,,,,0,1,1,1,,,,,,,,,,,,,,,,,0,60,60,60,,,,,,,,,,,,,,,,,,,,,,,None,[],,0,0,,,,99,A,1,2019_Jun_29_1359,PM,3.0.6,60.03323008556002,
,,,Pictures/8497.jpg,,,PM_list_2.xlsx,PM_images_list_2.xlsx,cue words2.xlsx,cue images2.xlsx,recog_task2.xlsx,recog_task_images2.xlsx,None,l,0,NoHit,1,,,,,,,,,,,,,,,,,,,,,,,,,,,0,1,1,1,,,,,,,,,,,,,,,,,0,61,61,61,,,,,,,,,,,,,,,,,,,,,,,None,[],,0,[],,,,99,A,1,2019_Jun_29_1359,PM,3.0.6,60.03323008556002,
,,,Pictures/1310.jpg,,,PM_list_2.xlsx,PM_images_list_2.xlsx,cue words2.xlsx,cue images2.xlsx,recog_task2.xlsx,recog_task_images2.xlsx,None,l,0,NoHit,1,,,,,,,,,,,,,,,,,,,,,,,,,,,0,1,1,1,,,,,,,,,,,,,,,,,0,62,62,62,,,,,,,,,,,,,,,,,,,,,,,None,[],,0,[],,,,99,A,1,2019_Jun_29_1359,PM,3.0.6,60.03323008556002,
,,,Pictures/8497.jpg,,,PM_list_2.xlsx,PM_images_list_2.xlsx,cue words2.xlsx,cue images2.xlsx,recog_task2.xlsx,recog_task_images2.xlsx,None,d,1,Hit,1,,,,,,,,,,,,,,,,,,,,,,,,,,,0,1,1,1,,,,,,,,,,,,,,,,,0,63,63,63,,,,,,,,,,,,,,,,,,,,,,,['h'],[0.5751395908882841],0.5751395908882841,0,[],,,,99,A,1,2019_Jun_29_1359,PM,3.0.6,60.03323008556002,
,,,Pictures/2276.jpg,,,PM_list_2.xlsx,PM_images_list_2.xlsx,cue words2.xlsx,cue images2.xlsx,recog_task2.xlsx,recog_task_images2.xlsx,None,l,0,NoHit,1,,,,,,,,,,,,,,,,,,,,,,,,,,,0,1,1,1,,,,,,,,,,,,,,,,,0,64,64,64,,,,,,,,,,,,,,,,,,,,,,,None,[],,0,[],,,,99,A,1,2019_Jun_29_1359,PM,3.0.6,60.03323008556002,
,,,Pictures/9440.jpg,,,PM_list_2.xlsx,PM_images_list_2.xlsx,cue words2.xlsx,cue images2.xlsx,recog_task2.xlsx,recog_task_images2.xlsx,None,l,0,NoHit,1,,,,,,,,,,,,,,,,,,,,,,,,,,,0,1,1,1,,,,,,,,,,,,,,,,,0,65,65,65,,,,,,,,,,,,,,,,,,,,,,,None,[],,0,[],,,,99,A,1,2019_Jun_29_1359,PM,3.0.6,60.03323008556002,
,,,Pictures/2276.jpg,,,PM_list_2.xlsx,PM_images_list_2.xlsx,cue words2.xlsx,cue images2.xlsx,recog_task2.xlsx,recog_task_images2.xlsx,None,d,1,Hit,1,,,,,,,,,,,,,,,,,,,,,,,,,,,0,1,1,1,,,,,,,,,,,,,,,,,0,66,66,66,,,,,,,,,,,,,,,,,,,,,,,None,[],,0,[],,,,99,A,1,2019_Jun_29_1359,PM,3.0.6,60.03323008556002,
,,,Pictures/7640.jpg,,,PM_list_2.xlsx,PM_images_list_2.xlsx,cue words2.xlsx,cue images2.xlsx,recog_task2.xlsx,recog_task_images2.xlsx,None,l,0,NoHit,1,,,,,,,,,,,,,,,,,,,,,,,,,,,0,1,1,1,,,,,,,,,,,,,,,,,0,67,67,67,,,,,,,,,,,,,,,,,,,,,,,None,[],,0,[],,,,99,A,1,2019_Jun_29_1359,PM,3.0.6,60.03323008556002,
,,,Pictures/8475.jpg,,,PM_list_2.xlsx,PM_images_list_2.xlsx,cue words2.xlsx,cue images2.xlsx,recog_task2.xlsx,recog_task_images2.xlsx,None,l,0,NoHit,1,,,,,,,,,,,,,,,,,,,,,,,,,,,0,1,1,1,,,,,,,,,,,,,,,,,0,68,68,68,,,,,,,,,,,,,,,,,,,,,,,None,[],,0,[],,,,99,A,1,2019_Jun_29_1359,PM,3.0.6,60.03323008556002,
,,,Pictures/3310.jpg,,,PM_list_2.xlsx,PM_images_list_2.xlsx,cue words2.xlsx,cue images2.xlsx,recog_task2.xlsx,recog_task_images2.xlsx,None,l,0,NoHit,1,,,,,,,,,,,,,,,,,,,,,,,,,,,0,1,1,1,,,,,,,,,,,,,,,,,0,69,69,69,,,,,,,,,,,,,,,,,,,,,,,None,[],,0,[],,,,99,A,1,2019_Jun_29_1359,PM,3.0.6,60.03323008556002,
,,,Pictures/2722.jpg,,,PM_list_2.xlsx,PM_images_list_2.xlsx,cue words2.xlsx,cue images2.xlsx,recog_task2.xlsx,recog_task_images2.xlsx,None,h,2,NegL2,2,,,,,,,,,,,,,,,,,,,,,,,,,,,0,1,1,1,,,,,,,,,,,,,,,,,0,70,70,70,,,,,,,,,,,,,,,,,,,,,,,None,[],,0,0,,,,99,A,1,2019_Jun_29_1359,PM,3.0.6,60.03323008556002,
,,,Pictures/3310.jpg,,,PM_list_2.xlsx,PM_images_list_2.xlsx,cue words2.xlsx,cue images2.xlsx,recog_task2.xlsx,recog_task_images2.xlsx,None,d,1,Hit,1,,,,,,,,,,,,,,,,,,,,,,,,,,,0,1,1,1,,,,,,,,,,,,,,,,,0,71,71,71,,,,,,,,,,,,,,,,,,,,,,,None,[],,0,[],,,,99,A,1,2019_Jun_29_1359,PM,3.0.6,60.03323008556002,
,,,Pictures/7365.jpg,,,PM_list_2.xlsx,PM_images_list_2.xlsx,cue words2.xlsx,cue images2.xlsx,recog_task2.xlsx,recog_task_images2.xlsx,None,l,0,NoHit,1,,,,,,,,,,,,,,,,,,,,,,,,,,,0,1,1,1,,,,,,,,,,,,,,,,,0,72,72,72,,,,,,,,,,,,,,,,,,,,,,,None,[],,0,[],,,,99,A,1,2019_Jun_29_1359,PM,3.0.6,60.03323008556002,
,,,Pictures/2683.jpg,,,PM_list_2.xlsx,PM_images_list_2.xlsx,cue words2.xlsx,cue images2.xlsx,recog_task2.xlsx,recog_task_images2.xlsx,None,l,0,NoHit,1,,,,,,,,,,,,,,,,,,,,,,,,,,,0,1,1,1,,,,,,,,,,,,,,,,,0,73,73,73,,,,,,,,,,,,,,,,,,,,,,,None,[],,0,[],,,,99,A,1,2019_Jun_29_1359,PM,3.0.6,60.03323008556002,
,,,Pictures/2660.jpg,,,PM_list_2.xlsx,PM_images_list_2.xlsx,cue words2.xlsx,cue images2.xlsx,recog_task2.xlsx,recog_task_images2.xlsx,None,l,0,NoHit,1,,,,,,,,,,,,,,,,,,,,,,,,,,,0,1,1,1,,,,,,,,,,,,,,,,,0,74,74,74,,,,,,,,,,,,,,,,,,,,,,,None,[],,0,[],,,,99,A,1,2019_Jun_29_1359,PM,3.0.6,60.03323008556002,
,,,Pictures/6243.jpg,,,PM_list_2.xlsx,PM_images_list_2.xlsx,cue words2.xlsx,cue images2.xlsx,recog_task2.xlsx,recog_task_images2.xlsx,None,l,0,NoHit,1,,,,,,,,,,,,,,,,,,,,,,,,,,,0,1,1,1,,,,,,,,,,,,,,,,,0,75,75,75,,,,,,,,,,,,,,,,,,,,,,,None,[],,0,[],,,,99,A,1,2019_Jun_29_1359,PM,3.0.6,60.03323008556002,
,,,Pictures/2660.jpg,,,PM_list_2.xlsx,PM_images_list_2.xlsx,cue words2.xlsx,cue images2.xlsx,recog_task2.xlsx,recog_task_images2.xlsx,None,d,1,Hit,1,,,,,,,,,,,,,,,,,,,,,,,,,,,0,1,1,1,,,,,,,,,,,,,,,,,0,76,76,76,,,,,,,,,,,,,,,,,,,,,,,None,[],,0,[],,,,99,A,1,2019_Jun_29_1359,PM,3.0.6,60.03323008556002,
,,,Pictures/9440.jpg,,,PM_list_2.xlsx,PM_images_list_2.xlsx,cue words2.xlsx,cue images2.xlsx,recog_task2.xlsx,recog_task_images2.xlsx,None,l,0,NoHit,1,,,,,,,,,,,,,,,,,,,,,,,,,,,0,1,1,1,,,,,,,,,,,,,,,,,0,77,77,77,,,,,,,,,,,,,,,,,,,,,,,None,[],,0,[],,,,99,A,1,2019_Jun_29_1359,PM,3.0.6,60.03323008556002,
,,,Pictures/1080.jpg,,,PM_list_2.xlsx,PM_images_list_2.xlsx,cue words2.xlsx,cue images2.xlsx,recog_task2.xlsx,recog_task_images2.xlsx,None,l,0,NoHit,1,,,,,,,,,,,,,,,,,,,,,,,,,,,0,1,1,1,,,,,,,,,,,,,,,,,0,78,78,78,,,,,,,,,,,,,,,,,,,,,,,None,[],,0,[],,,,99,A,1,2019_Jun_29_1359,PM,3.0.6,60.03323008556002,
,,,Pictures/1630.jpg,,,PM_list_2.xlsx,PM_images_list_2.xlsx,cue words2.xlsx,cue images2.xlsx,recog_task2.xlsx,recog_task_images2.xlsx,None,l,0,NoHit,1,,,,,,,,,,,,,,,,,,,,,,,,,,,0,1,1,1,,,,,,,,,,,,,,,,,0,79,79,79,,,,,,,,,,,,,,,,,,,,,,,None,[],,0,[],,,,99,A,1,2019_Jun_29_1359,PM,3.0.6,60.03323008556002,
,,,Pictures/2395.jpg,,,PM_list_2.xlsx,PM_images_list_2.xlsx,cue words2.xlsx,cue images2.xlsx,recog_task2.xlsx,recog_task_images2.xlsx,None,l,0,NoHit,1,,,,,,,,,,,,,,,,,,,,,,,,,,,0,1,1,1,,,,,,,,,,,,,,,,,0,80,80,80,,,,,,,,,,,,,,,,,,,,,,,None,[],,0,[],,,,99,A,1,2019_Jun_29_1359,PM,3.0.6,60.03323008556002,
,,,Pictures/1630.jpg,,,PM_list_2.xlsx,PM_images_list_2.xlsx,cue words2.xlsx,cue images2.xlsx,recog_task2.xlsx,recog_task_images2.xlsx,None,d,1,Hit,1,,,,,,,,,,,,,,,,,,,,,,,,,,,0,1,1,1,,,,,,,,,,,,,,,,,0,81,81,81,,,,,,,,,,,,,,,,,,,,,,,None,[],,0,[],,,,99,A,1,2019_Jun_29_1359,PM,3.0.6,60.03323008556002,
,,,Pictures/5594.jpg,,,PM_list_2.xlsx,PM_images_list_2.xlsx,cue words2.xlsx,cue images2.xlsx,recog_task2.xlsx,recog_task_images2.xlsx,None,h,4,PosL2,2,,,,,,,,,,,,,,,,,,,,,,,,,,,0,1,1,1,,,,,,,,,,,,,,,,,0,82,82,82,,,,,,,,,,,,,,,,,,,,,,,['h'],[1.1606932469876483],1.1606932469876483,1,1,,,,99,A,1,2019_Jun_29_1359,PM,3.0.6,60.03323008556002,
,,,Pictures/7046.jpg,,,PM_list_2.xlsx,PM_images_list_2.xlsx,cue words2.xlsx,cue images2.xlsx,recog_task2.xlsx,recog_task_images2.xlsx,None,l,0,NoHit,1,,,,,,,,,,,,,,,,,,,,,,,,,,,0,1,1,1,,,,,,,,,,,,,,,,,0,83,83,83,,,,,,,,,,,,,,,,,,,,,,,None,[],,0,[],,,,99,A,1,2019_Jun_29_1359,PM,3.0.6,60.03323008556002,
,,,Pictures/9905.jpg,,,PM_list_2.xlsx,PM_images_list_2.xlsx,cue words2.xlsx,cue images2.xlsx,recog_task2.xlsx,recog_task_images2.xlsx,None,l,0,NoHit,1,,,,,,,,,,,,,,,,,,,,,,,,,,,0,1,1,1,,,,,,,,,,,,,,,,,0,84,84,84,,,,,,,,,,,,,,,,,,,,,,,None,[],,0,[],,,,99,A,1,2019_Jun_29_1359,PM,3.0.6,60.03323008556002,
,,,Pictures/7046.jpg,,,PM_list_2.xlsx,PM_images_list_2.xlsx,cue words2.xlsx,cue images2.xlsx,recog_task2.xlsx,recog_task_images2.xlsx,None,d,1,Hit,1,,,,,,,,,,,,,,,,,,,,,,,,,,,0,1,1,1,,,,,,,,,,,,,,,,,0,85,85,85,,,,,,,,,,,,,,,,,,,,,,,None,[],,0,[],,,,99,A,1,2019_Jun_29_1359,PM,3.0.6,60.03323008556002,
,,,Pictures/7365.jpg,,,PM_list_2.xlsx,PM_images_list_2.xlsx,cue words2.xlsx,cue images2.xlsx,recog_task2.xlsx,recog_task_images2.xlsx,None,l,0,NoHit,1,,,,,,,,,,,,,,,,,,,,,,,,,,,0,1,1,1,,,,,,,,,,,,,,,,,0,86,86,86,,,,,,,,,,,,,,,,,,,,,,,None,[],,0,[],,,,99,A,1,2019_Jun_29_1359,PM,3.0.6,60.03323008556002,
,,,Pictures/2156.jpg,,,PM_list_2.xlsx,PM_images_list_2.xlsx,cue words2.xlsx,cue images2.xlsx,recog_task2.xlsx,recog_task_images2.xlsx,None,l,0,NoHit,1,,,,,,,,,,,,,,,,,,,,,,,,,,,0,1,1,1,,,,,,,,,,,,,,,,,0,87,87,87,,,,,,,,,,,,,,,,,,,,,,,None,[],,0,[],,,,99,A,1,2019_Jun_29_1359,PM,3.0.6,60.03323008556002,
,,,Pictures/2446.jpg,,,PM_list_2.xlsx,PM_images_list_2.xlsx,cue words2.xlsx,cue images2.xlsx,recog_task2.xlsx,recog_task_images2.xlsx,None,l,0,NoHit,1,,,,,,,,,,,,,,,,,,,,,,,,,,,0,1,1,1,,,,,,,,,,,,,,,,,0,88,88,88,,,,,,,,,,,,,,,,,,,,,,,None,[],,0,[],,,,99,A,1,2019_Jun_29_1359,PM,3.0.6,60.03323008556002,
,,,Pictures/2156.jpg,,,PM_list_2.xlsx,PM_images_list_2.xlsx,cue words2.xlsx,cue images2.xlsx,recog_task2.xlsx,recog_task_images2.xlsx,None,d,1,Hit,1,,,,,,,,,,,,,,,,,,,,,,,,,,,0,1,1,1,,,,,,,,,,,,,,,,,0,89,89,89,,,,,,,,,,,,,,,,,,,,,,,None,[],,0,[],,,,99,A,1,2019_Jun_29_1359,PM,3.0.6,60.03323008556002,
,,,Pictures/3211.jpg,,,PM_list_2.xlsx,PM_images_list_2.xlsx,cue words2.xlsx,cue images2.xlsx,recog_task2.xlsx,recog_task_images2.xlsx,None,l,0,NoHit,1,,,,,,,,,,,,,,,,,,,,,,,,,,,0,1,1,1,,,,,,,,,,,,,,,,,0,90,90,90,,,,,,,,,,,,,,,,,,,,,,,None,[],,0,[],,,,99,A,1,2019_Jun_29_1359,PM,3.0.6,60.03323008556002,
,,,Pictures/2216.jpg,,,PM_list_2.xlsx,PM_images_list_2.xlsx,cue words2.xlsx,cue images2.xlsx,recog_task2.xlsx,recog_task_images2.xlsx,None,l,0,NoHit,1,,,,,,,,,,,,,,,,,,,,,,,,,,,0,1,1,1,,,,,,,,,,,,,,,,,0,91,91,91,,,,,,,,,,,,,,,,,,,,,,,None,[],,0,[],,,,99,A,1,2019_Jun_29_1359,PM,3.0.6,60.03323008556002,
,,,Pictures/5940.jpg,,,PM_list_2.xlsx,PM_images_list_2.xlsx,cue words2.xlsx,cue images2.xlsx,recog_task2.xlsx,recog_task_images2.xlsx,None,l,0,NoHit,1,,,,,,,,,,,,,,,,,,,,,,,,,,,0,1,1,1,,,,,,,,,,,,,,,,,0,92,92,92,,,,,,,,,,,,,,,,,,,,,,,None,[],,0,[],,,,99,A,1,2019_Jun_29_1359,PM,3.0.6,60.03323008556002,
,,,Pictures/2230.jpg,,,PM_list_2.xlsx,PM_images_list_2.xlsx,cue words2.xlsx,cue images2.xlsx,recog_task2.xlsx,recog_task_images2.xlsx,None,h,3,NeuL2,2,,,,,,,,,,,,,,,,,,,,,,,,,,,0,1,1,1,,,,,,,,,,,,,,,,,0,93,93,93,,,,,,,,,,,,,,,,,,,,,,,None,[],,0,0,,,,99,A,1,2019_Jun_29_1359,PM,3.0.6,60.03323008556002,
,,,Pictures/5940.jpg,,,PM_list_2.xlsx,PM_images_list_2.xlsx,cue words2.xlsx,cue images2.xlsx,recog_task2.xlsx,recog_task_images2.xlsx,None,d,1,Hit,1,,,,,,,,,,,,,,,,,,,,,,,,,,,0,1,1,1,,,,,,,,,,,,,,,,,0,94,94,94,,,,,,,,,,,,,,,,,,,,,,,None,[],,0,[],,,,99,A,1,2019_Jun_29_1359,PM,3.0.6,60.03323008556002,
,,,Pictures/8475.jpg,,,PM_list_2.xlsx,PM_images_list_2.xlsx,cue words2.xlsx,cue images2.xlsx,recog_task2.xlsx,recog_task_images2.xlsx,None,l,0,NoHit,1,,,,,,,,,,,,,,,,,,,,,,,,,,,0,1,1,1,,,,,,,,,,,,,,,,,0,95,95,95,,,,,,,,,,,,,,,,,,,,,,,None,[],,0,[],,,,99,A,1,2019_Jun_29_1359,PM,3.0.6,60.03323008556002,
,,,Pictures/9000.jpg,,,PM_list_2.xlsx,PM_images_list_2.xlsx,cue words2.xlsx,cue images2.xlsx,recog_task2.xlsx,recog_task_images2.xlsx,None,l,0,NoHit,1,,,,,,,,,,,,,,,,,,,,,,,,,,,0,1,1,1,,,,,,,,,,,,,,,,,0,96,96,96,,,,,,,,,,,,,,,,,,,,,,,None,[],,0,[],,,,99,A,1,2019_Jun_29_1359,PM,3.0.6,60.03323008556002,
,,,Pictures/6530.jpg,,,PM_list_2.xlsx,PM_images_list_2.xlsx,cue words2.xlsx,cue images2.xlsx,recog_task2.xlsx,recog_task_images2.xlsx,None,l,0,NoHit,1,,,,,,,,,,,,,,,,,,,,,,,,,,,0,1,1,1,,,,,,,,,,,,,,,,,0,97,97,97,,,,,,,,,,,,,,,,,,,,,,,None,[],,0,[],,,,99,A,1,2019_Jun_29_1359,PM,3.0.6,60.03323008556002,
,,,Pictures/9000.jpg,,,PM_list_2.xlsx,PM_images_list_2.xlsx,cue words2.xlsx,cue images2.xlsx,recog_task2.xlsx,recog_task_images2.xlsx,None,d,1,Hit,1,,,,,,,,,,,,,,,,,,,,,,,,,,,0,1,1,1,,,,,,,,,,,,,,,,,0,98,98,98,,,,,,,,,,,,,,,,,,,,,,,None,[],,0,[],,,,99,A,1,2019_Jun_29_1359,PM,3.0.6,60.03323008556002,
,,,Pictures/2400.jpg,,,PM_list_2.xlsx,PM_images_list_2.xlsx,cue words2.xlsx,cue images2.xlsx,recog_task2.xlsx,recog_task_images2.xlsx,None,l,0,NoHit,1,,,,,,,,,,,,,,,,,,,,,,,,,,,0,1,1,1,,,,,,,,,,,,,,,,,0,99,99,99,,,,,,,,,,,,,,,,,,,,,,,None,[],,0,[],,,,99,A,1,2019_Jun_29_1359,PM,3.0.6,60.03323008556002,
,,,Pictures/5629.jpg,,,PM_list_2.xlsx,PM_images_list_2.xlsx,cue words2.xlsx,cue images2.xlsx,recog_task2.xlsx,recog_task_images2.xlsx,None,l,0,NoHit,1,,,,,,,,,,,,,,,,,,,,,,,,,,,0,1,1,1,,,,,,,,,,,,,,,,,0,100,100,100,,,,,,,,,,,,,,,,,,,,,,,None,[],,0,[],,,,99,A,1,2019_Jun_29_1359,PM,3.0.6,60.03323008556002,
,,,Pictures/2400.jpg,,,PM_list_2.xlsx,PM_images_list_2.xlsx,cue words2.xlsx,cue images2.xlsx,recog_task2.xlsx,recog_task_images2.xlsx,None,d,1,Hit,1,,,,,,,,,,,,,,,,,,,,,,,,,,,0,1,1,1,,,,,,,,,,,,,,,,,0,101,101,101,,,,,,,,,,,,,,,,,,,,,,,None,[],,0,[],,,,99,A,1,2019_Jun_29_1359,PM,3.0.6,60.03323008556002,
,,,Pictures/9425.jpg,,,PM_list_2.xlsx,PM_images_list_2.xlsx,cue words2.xlsx,cue images2.xlsx,recog_task2.xlsx,recog_task_images2.xlsx,None,l,0,NoHit,1,,,,,,,,,,,,,,,,,,,,,,,,,,,0,1,1,1,,,,,,,,,,,,,,,,,0,102,102,102,,,,,,,,,,,,,,,,,,,,,,,None,[],,0,[],,,,99,A,1,2019_Jun_29_1359,PM,3.0.6,60.03323008556002,
,,,Pictures/1230.jpg,,,PM_list_2.xlsx,PM_images_list_2.xlsx,cue words2.xlsx,cue images2.xlsx,recog_task2.xlsx,recog_task_images2.xlsx,None,l,0,NoHit,1,,,,,,,,,,,,,,,,,,,,,,,,,,,0,1,1,1,,,,,,,,,,,,,,,,,0,103,103,103,,,,,,,,,,,,,,,,,,,,,,,None,[],,0,[],,,,99,A,1,2019_Jun_29_1359,PM,3.0.6,60.03323008556002,
,,,Pictures/9425.jpg,,,PM_list_2.xlsx,PM_images_list_2.xlsx,cue words2.xlsx,cue images2.xlsx,recog_task2.xlsx,recog_task_images2.xlsx,None,d,1,Hit,1,,,,,,,,,,,,,,,,,,,,,,,,,,,0,1,1,1,,,,,,,,,,,,,,,,,0,104,104,104,,,,,,,,,,,,,,,,,,,,,,,None,[],,0,[],,,,99,A,1,2019_Jun_29_1359,PM,3.0.6,60.03323008556002,
,,,Pictures/3550.jpg,,,PM_list_2.xlsx,PM_images_list_2.xlsx,cue words2.xlsx,cue images2.xlsx,recog_task2.xlsx,recog_task_images2.xlsx,None,h,5,NegH2,2,,,,,,,,,,,,,,,,,,,,,,,,,,,0,1,1,1,,,,,,,,,,,,,,,,,0,105,105,105,,,,,,,,,,,,,,,,,,,,,,,None,[],,0,0,,,,99,A,1,2019_Jun_29_1359,PM,3.0.6,60.03323008556002,
,,,Pictures/6243.jpg,,,PM_list_2.xlsx,PM_images_list_2.xlsx,cue words2.xlsx,cue images2.xlsx,recog_task2.xlsx,recog_task_images2.xlsx,None,l,0,NoHit,1,,,,,,,,,,,,,,,,,,,,,,,,,,,0,1,1,1,,,,,,,,,,,,,,,,,0,106,106,106,,,,,,,,,,,,,,,,,,,,,,,None,[],,0,[],,,,99,A,1,2019_Jun_29_1359,PM,3.0.6,60.03323008556002,
,,,Pictures/1920.jpg,,,PM_list_2.xlsx,PM_images_list_2.xlsx,cue words2.xlsx,cue images2.xlsx,recog_task2.xlsx,recog_task_images2.xlsx,None,l,0,NoHit,1,,,,,,,,,,,,,,,,,,,,,,,,,,,0,1,1,1,,,,,,,,,,,,,,,,,0,107,107,107,,,,,,,,,,,,,,,,,,,,,,,None,[],,0,[],,,,99,A,1,2019_Jun_29_1359,PM,3.0.6,60.03323008556002,
,,,Pictures/2395.jpg,,,PM_list_2.xlsx,PM_images_list_2.xlsx,cue words2.xlsx,cue images2.xlsx,recog_task2.xlsx,recog_task_images2.xlsx,None,l,0,NoHit,1,,,,,,,,,,,,,,,,,,,,,,,,,,,0,1,1,1,,,,,,,,,,,,,,,,,0,108,108,108,,,,,,,,,,,,,,,,,,,,,,,None,[],,0,[],,,,99,A,1,2019_Jun_29_1359,PM,3.0.6,60.03323008556002,
,,,Pictures/1920.jpg,,,PM_list_2.xlsx,PM_images_list_2.xlsx,cue words2.xlsx,cue images2.xlsx,recog_task2.xlsx,recog_task_images2.xlsx,None,d,1,Hit,1,,,,,,,,,,,,,,,,,,,,,,,,,,,0,1,1,1,,,,,,,,,,,,,,,,,0,109,109,109,,,,,,,,,,,,,,,,,,,,,,,None,[],,0,[],,,,99,A,1,2019_Jun_29_1359,PM,3.0.6,60.03323008556002,
,,,Pictures/2487.jpg,,,PM_list_2.xlsx,PM_images_list_2.xlsx,cue words2.xlsx,cue images2.xlsx,recog_task2.xlsx,recog_task_images2.xlsx,None,l,0,NoHit,1,,,,,,,,,,,,,,,,,,,,,,,,,,,0,1,1,1,,,,,,,,,,,,,,,,,0,110,110,110,,,,,,,,,,,,,,,,,,,,,,,None,[],,0,[],,,,99,A,1,2019_Jun_29_1359,PM,3.0.6,60.03323008556002,
,,,Pictures/2490.jpg,,,PM_list_2.xlsx,PM_images_list_2.xlsx,cue words2.xlsx,cue images2.xlsx,recog_task2.xlsx,recog_task_images2.xlsx,None,l,0,NoHit,1,,,,,,,,,,,,,,,,,,,,,,,,,,,0,1,1,1,,,,,,,,,,,,,,,,,0,111,111,111,,,,,,,,,,,,,,,,,,,,,,,None,[],,0,[],,,,99,A,1,2019_Jun_29_1359,PM,3.0.6,60.03323008556002,
,,,Pictures/2332.jpg,,,PM_list_2.xlsx,PM_images_list_2.xlsx,cue words2.xlsx,cue images2.xlsx,recog_task2.xlsx,recog_task_images2.xlsx,None,l,0,NoHit,1,,,,,,,,,,,,,,,,,,,,,,,,,,,0,1,1,1,,,,,,,,,,,,,,,,,0,112,112,112,,,,,,,,,,,,,,,,,,,,,,,None,[],,0,[],,,,99,A,1,2019_Jun_29_1359,PM,3.0.6,60.03323008556002,
,,,Pictures/2490.jpg,,,PM_list_2.xlsx,PM_images_list_2.xlsx,cue words2.xlsx,cue images2.xlsx,recog_task2.xlsx,recog_task_images2.xlsx,None,d,1,Hit,1,,,,,,,,,,,,,,,,,,,,,,,,,,,0,1,1,1,,,,,,,,,,,,,,,,,0,113,113,113,,,,,,,,,,,,,,,,,,,,,,,None,[],,0,[],,,,99,A,1,2019_Jun_29_1359,PM,3.0.6,60.03323008556002,
,,,Pictures/2810.jpg,,,PM_list_2.xlsx,PM_images_list_2.xlsx,cue words2.xlsx,cue images2.xlsx,recog_task2.xlsx,recog_task_images2.xlsx,None,l,0,NoHit,1,,,,,,,,,,,,,,,,,,,,,,,,,,,0,1,1,1,,,,,,,,,,,,,,,,,0,114,114,114,,,,,,,,,,,,,,,,,,,,,,,None,[],,0,[],,,,99,A,1,2019_Jun_29_1359,PM,3.0.6,60.03323008556002,
,,,Pictures/8010.jpg,,,PM_list_2.xlsx,PM_images_list_2.xlsx,cue words2.xlsx,cue images2.xlsx,recog_task2.xlsx,recog_task_images2.xlsx,None,l,0,NoHit,1,,,,,,,,,,,,,,,,,,,,,,,,,,,0,1,1,1,,,,,,,,,,,,,,,,,0,115,115,115,,,,,,,,,,,,,,,,,,,,,,,None,[],,0,[],,,,99,A,1,2019_Jun_29_1359,PM,3.0.6,60.03323008556002,
,,,Pictures/2981.jpg,,,PM_list_2.xlsx,PM_images_list_2.xlsx,cue words2.xlsx,cue images2.xlsx,recog_task2.xlsx,recog_task_images2.xlsx,None,l,0,NoHit,1,,,,,,,,,,,,,,,,,,,,,,,,,,,0,1,1,1,,,,,,,,,,,,,,,,,0,116,116,116,,,,,,,,,,,,,,,,,,,,,,,None,[],,0,[],,,,99,A,1,2019_Jun_29_1359,PM,3.0.6,60.03323008556002,
,,,Pictures/4625.jpg,,,PM_list_2.xlsx,PM_images_list_2.xlsx,cue words2.xlsx,cue images2.xlsx,recog_task2.xlsx,recog_task_images2.xlsx,None,h,7,PosH2,2,,,,,,,,,,,,,,,,,,,,,,,,,,,0,1,1,1,,,,,,,,,,,,,,,,,0,117,117,117,,,,,,,,,,,,,,,,,,,,,,,None,[],,0,0,,,,99,A,1,2019_Jun_29_1359,PM,3.0.6,60.03323008556002,
,,,Pictures/2981.jpg,,,PM_list_2.xlsx,PM_images_list_2.xlsx,cue words2.xlsx,cue images2.xlsx,recog_task2.xlsx,recog_task_images2.xlsx,None,d,1,Hit,1,,,,,,,,,,,,,,,,,,,,,,,,,,,0,1,1,1,,,,,,,,,,,,,,,,,0,118,118,118,,,,,,,,,,,,,,,,,,,,,,,None,[],,0,[],,,,99,A,1,2019_Jun_29_1359,PM,3.0.6,60.03323008556002,
,,,Pictures/8490.jpg,,,PM_list_2.xlsx,PM_images_list_2.xlsx,cue words2.xlsx,cue images2.xlsx,recog_task2.xlsx,recog_task_images2.xlsx,None,l,0,NoHit,1,,,,,,,,,,,,,,,,,,,,,,,,,,,0,1,1,1,,,,,,,,,,,,,,,,,0,119,119,119,,,,,,,,,,,,,,,,,,,,,,,None,[],,0,[],,,,99,A,1,2019_Jun_29_1359,PM,3.0.6,60.03323008556002,
,,,Pictures/9280.jpg,,,PM_list_2.xlsx,PM_images_list_2.xlsx,cue words2.xlsx,cue images2.xlsx,recog_task2.xlsx,recog_task_images2.xlsx,None,l,0,NoHit,1,,,,,,,,,,,,,,,,,,,,,,,,,,,0,1,1,1,,,,,,,,,,,,,,,,,0,120,120,120,,,,,,,,,,,,,,,,,,,,,,,None,[],,0,[],,,,99,A,1,2019_Jun_29_1359,PM,3.0.6,60.03323008556002,
,,,Pictures/9006.jpg,,,PM_list_2.xlsx,PM_images_list_2.xlsx,cue words2.xlsx,cue images2.xlsx,recog_task2.xlsx,recog_task_images2.xlsx,None,l,0,NoHit,1,,,,,,,,,,,,,,,,,,,,,,,,,,,0,1,1,1,,,,,,,,,,,,,,,,,0,121,121,121,,,,,,,,,,,,,,,,,,,,,,,None,[],,0,[],,,,99,A,1,2019_Jun_29_1359,PM,3.0.6,60.03323008556002,
,,,Pictures/2310.jpg,,,PM_list_2.xlsx,PM_images_list_2.xlsx,cue words2.xlsx,cue images2.xlsx,recog_task2.xlsx,recog_task_images2.xlsx,None,l,0,NoHit,1,,,,,,,,,,,,,,,,,,,,,,,,,,,0,1,1,1,,,,,,,,,,,,,,,,,0,122,122,122,,,,,,,,,,,,,,,,,,,,,,,None,[],,0,[],,,,99,A,1,2019_Jun_29_1359,PM,3.0.6,60.03323008556002,
,,,Pictures/9006.jpg,,,PM_list_2.xlsx,PM_images_list_2.xlsx,cue words2.xlsx,cue images2.xlsx,recog_task2.xlsx,recog_task_images2.xlsx,None,d,1,Hit,1,,,,,,,,,,,,,,,,,,,,,,,,,,,0,1,1,1,,,,,,,,,,,,,,,,,0,123,123,123,,,,,,,,,,,,,,,,,,,,,,,None,[],,0,[],,,,99,A,1,2019_Jun_29_1359,PM,3.0.6,60.03323008556002,
,,,Pictures/1310.jpg,,,PM_list_2.xlsx,PM_images_list_2.xlsx,cue words2.xlsx,cue images2.xlsx,recog_task2.xlsx,recog_task_images2.xlsx,None,l,0,NoHit,1,,,,,,,,,,,,,,,,,,,,,,,,,,,0,1,1,1,,,,,,,,,,,,,,,,,0,124,124,124,,,,,,,,,,,,,,,,,,,,,,,None,[],,0,[],,,,99,A,1,2019_Jun_29_1359,PM,3.0.6,60.03323008556002,
,,,Pictures/2205.jpg,,,PM_list_2.xlsx,PM_images_list_2.xlsx,cue words2.xlsx,cue images2.xlsx,recog_task2.xlsx,recog_task_images2.xlsx,None,l,0,NoHit,1,,,,,,,,,,,,,,,,,,,,,,,,,,,0,1,1,1,,,,,,,,,,,,,,,,,0,125,125,125,,,,,,,,,,,,,,,,,,,,,,,None,[],,0,[],,,,99,A,1,2019_Jun_29_1359,PM,3.0.6,60.03323008556002,
,,,Pictures/6900.jpg,,,PM_list_2.xlsx,PM_images_list_2.xlsx,cue words2.xlsx,cue images2.xlsx,recog_task2.xlsx,recog_task_images2.xlsx,None,h,6,NeuH2,2,,,,,,,,,,,,,,,,,,,,,,,,,,,0,1,1,1,,,,,,,,,,,,,,,,,0,126,126,126,,,,,,,,,,,,,,,,,,,,,,,None,[],,0,0,,,,99,A,1,2019_Jun_29_1359,PM,3.0.6,60.03323008556002,
,,,Pictures/9075.jpg,,,PM_list_2.xlsx,PM_images_list_2.xlsx,cue words2.xlsx,cue images2.xlsx,recog_task2.xlsx,recog_task_images2.xlsx,None,l,0,NoHit,1,,,,,,,,,,,,,,,,,,,,,,,,,,,0,1,1,1,,,,,,,,,,,,,,,,,0,127,127,127,,,,,,,,,,,,,,,,,,,,,,,None,[],,0,[],,,,99,A,1,2019_Jun_29_1359,PM,3.0.6,60.03323008556002,
