adjective,posneg,panasnum,images,key,corrAnsw,condFile,condFileIm,cueFile,cueFileIm,recogFile,recogFileIm,cues,stimulus,CORRanswer,trialtype,valArous,block,StimulusType,ValArous,image,Panas_routine.thisRepN,Panas_routine.thisTrialN,Panas_routine.thisN,Panas_routine.thisIndex,trials.thisRepN,trials.thisTrialN,trials.thisN,trials.thisIndex,skip_routine.thisRepN,skip_routine.thisTrialN,skip_routine.thisN,skip_routine.thisIndex,illustration_loop.thisRepN,illustration_loop.thisTrialN,illustration_loop.thisN,illustration_loop.thisIndex,repeat_practice.thisRepN,repeat_practice.thisTrialN,repeat_practice.thisN,repeat_practice.thisIndex,trials_2.thisRepN,trials_2.thisTrialN,trials_2.thisN,trials_2.thisIndex,Group.thisRepN,Group.thisTrialN,Group.thisN,Group.thisIndex,loop_cues.thisRepN,loop_cues.thisTrialN,loop_cues.thisN,loop_cues.thisIndex,loop_cues2.thisRepN,loop_cues2.thisTrialN,loop_cues2.thisN,loop_cues2.thisIndex,instruction_wordfirst.thisRepN,instruction_wordfirst.thisTrialN,instruction_wordfirst.thisN,instruction_wordfirst.thisIndex,instruction_image_first.thisRepN,instruction_image_first.thisTrialN,instruction_image_first.thisN,instruction_image_first.thisIndex,PM_task_loop.thisRepN,PM_task_loop.thisTrialN,PM_task_loop.thisN,PM_task_loop.thisIndex,recog_task_loop.thisRepN,recog_task_loop.thisTrialN,recog_task_loop.thisN,recog_task_loop.thisIndex,trials_3.thisRepN,trials_3.thisTrialN,trials_3.thisN,trials_3.thisIndex,finalLoop.thisRepN,finalLoop.thisTrialN,finalLoop.thisN,finalLoop.thisIndex,rating.response,rating.rt,key_resp_6.keys,key_resp_6.rt,key_resp_6.corr,key_resp_6.rtFirst,key_resp_4.keys,key_resp_4.rt,key_resp_7.keys,key_resp_7.rt,key_resp_PM.keys,key_resp_PM.corr,key_resp_PM.rt,key_resp_PM.lenient,key_resp_18.keys,key_resp_18.corr,key_resp_18.rt,participant,Group,session,date,expName,psychopyVersion,frameRate,
interested,pos,1,,,,,,,,,,,,,,,,,,,0,0,0,0,0,0,0,0,,,,,,,,,,,,,,,,,,,,,,,,,,,,,,,,,,,,,,,,,,,,,,,,,,,,,3,1.402,,,,,,,,,,,,,,,,,B,1,2019_Jul_01_1949,PM,3.0.6,60.05889923911877,
distressed,neg,2,,,,,,,,,,,,,,,,,,,0,0,0,0,0,1,1,1,,,,,,,,,,,,,,,,,,,,,,,,,,,,,,,,,,,,,,,,,,,,,,,,,,,,,4,0.857,,,,,,,,,,,,,,,,,B,1,2019_Jul_01_1949,PM,3.0.6,60.05889923911877,
excited,pos,1,,,,,,,,,,,,,,,,,,,0,0,0,0,0,2,2,2,,,,,,,,,,,,,,,,,,,,,,,,,,,,,,,,,,,,,,,,,,,,,,,,,,,,,2,0.92,,,,,,,,,,,,,,,,,B,1,2019_Jul_01_1949,PM,3.0.6,60.05889923911877,
upset,neg,2,,,,,,,,,,,,,,,,,,,0,0,0,0,0,3,3,3,,,,,,,,,,,,,,,,,,,,,,,,,,,,,,,,,,,,,,,,,,,,,,,,,,,,,3,0.66,,,,,,,,,,,,,,,,,B,1,2019_Jul_01_1949,PM,3.0.6,60.05889923911877,
strong,pos,1,,,,,,,,,,,,,,,,,,,0,0,0,0,0,4,4,4,,,,,,,,,,,,,,,,,,,,,,,,,,,,,,,,,,,,,,,,,,,,,,,,,,,,,4,0.639,,,,,,,,,,,,,,,,,B,1,2019_Jul_01_1949,PM,3.0.6,60.05889923911877,
guilty,neg,2,,,,,,,,,,,,,,,,,,,0,0,0,0,0,5,5,5,,,,,,,,,,,,,,,,,,,,,,,,,,,,,,,,,,,,,,,,,,,,,,,,,,,,,2,1.535,,,,,,,,,,,,,,,,,B,1,2019_Jul_01_1949,PM,3.0.6,60.05889923911877,
scared,neg,2,,,,,,,,,,,,,,,,,,,0,0,0,0,0,6,6,6,,,,,,,,,,,,,,,,,,,,,,,,,,,,,,,,,,,,,,,,,,,,,,,,,,,,,5,0.739,,,,,,,,,,,,,,,,,B,1,2019_Jul_01_1949,PM,3.0.6,60.05889923911877,
hostile,neg,2,,,,,,,,,,,,,,,,,,,0,0,0,0,0,7,7,7,,,,,,,,,,,,,,,,,,,,,,,,,,,,,,,,,,,,,,,,,,,,,,,,,,,,,1,0.821,,,,,,,,,,,,,,,,,B,1,2019_Jul_01_1949,PM,3.0.6,60.05889923911877,
enthusiastic,pos,1,,,,,,,,,,,,,,,,,,,0,0,0,0,0,8,8,8,,,,,,,,,,,,,,,,,,,,,,,,,,,,,,,,,,,,,,,,,,,,,,,,,,,,,5,0.723,,,,,,,,,,,,,,,,,B,1,2019_Jul_01_1949,PM,3.0.6,60.05889923911877,
proud,pos,1,,,,,,,,,,,,,,,,,,,0,0,0,0,0,9,9,9,,,,,,,,,,,,,,,,,,,,,,,,,,,,,,,,,,,,,,,,,,,,,,,,,,,,,1,0.742,,,,,,,,,,,,,,,,,B,1,2019_Jul_01_1949,PM,3.0.6,60.05889923911877,
irritable,neg,2,,,,,,,,,,,,,,,,,,,0,0,0,0,0,10,10,10,,,,,,,,,,,,,,,,,,,,,,,,,,,,,,,,,,,,,,,,,,,,,,,,,,,,,4,0.738,,,,,,,,,,,,,,,,,B,1,2019_Jul_01_1949,PM,3.0.6,60.05889923911877,
alert,pos,1,,,,,,,,,,,,,,,,,,,0,0,0,0,0,11,11,11,,,,,,,,,,,,,,,,,,,,,,,,,,,,,,,,,,,,,,,,,,,,,,,,,,,,,1,0.808,,,,,,,,,,,,,,,,,B,1,2019_Jul_01_1949,PM,3.0.6,60.05889923911877,
ashamed,neg,2,,,,,,,,,,,,,,,,,,,0,0,0,0,0,12,12,12,,,,,,,,,,,,,,,,,,,,,,,,,,,,,,,,,,,,,,,,,,,,,,,,,,,,,3,0.69,,,,,,,,,,,,,,,,,B,1,2019_Jul_01_1949,PM,3.0.6,60.05889923911877,
inspired,pos,1,,,,,,,,,,,,,,,,,,,0,0,0,0,0,13,13,13,,,,,,,,,,,,,,,,,,,,,,,,,,,,,,,,,,,,,,,,,,,,,,,,,,,,,2,0.676,,,,,,,,,,,,,,,,,B,1,2019_Jul_01_1949,PM,3.0.6,60.05889923911877,
nervous,neg,2,,,,,,,,,,,,,,,,,,,0,0,0,0,0,14,14,14,,,,,,,,,,,,,,,,,,,,,,,,,,,,,,,,,,,,,,,,,,,,,,,,,,,,,5,1.07,,,,,,,,,,,,,,,,,B,1,2019_Jul_01_1949,PM,3.0.6,60.05889923911877,
determined,pos,1,,,,,,,,,,,,,,,,,,,0,0,0,0,0,15,15,15,,,,,,,,,,,,,,,,,,,,,,,,,,,,,,,,,,,,,,,,,,,,,,,,,,,,,2,0.672,,,,,,,,,,,,,,,,,B,1,2019_Jul_01_1949,PM,3.0.6,60.05889923911877,
attentive,neg,2,,,,,,,,,,,,,,,,,,,0,0,0,0,0,16,16,16,,,,,,,,,,,,,,,,,,,,,,,,,,,,,,,,,,,,,,,,,,,,,,,,,,,,,2,1.406,,,,,,,,,,,,,,,,,B,1,2019_Jul_01_1949,PM,3.0.6,60.05889923911877,
jittery,neg,2,,,,,,,,,,,,,,,,,,,0,0,0,0,0,17,17,17,,,,,,,,,,,,,,,,,,,,,,,,,,,,,,,,,,,,,,,,,,,,,,,,,,,,,3,0.676,,,,,,,,,,,,,,,,,B,1,2019_Jul_01_1949,PM,3.0.6,60.05889923911877,
active,pos,1,,,,,,,,,,,,,,,,,,,0,0,0,0,0,18,18,18,,,,,,,,,,,,,,,,,,,,,,,,,,,,,,,,,,,,,,,,,,,,,,,,,,,,,4,0.726,,,,,,,,,,,,,,,,,B,1,2019_Jul_01_1949,PM,3.0.6,60.05889923911877,
afraid,neg,2,,,,,,,,,,,,,,,,,,,0,0,0,0,0,19,19,19,,,,,,,,,,,,,,,,,,,,,,,,,,,,,,,,,,,,,,,,,,,,,,,,,,,,,1,0.855,,,,,,,,,,,,,,,,,B,1,2019_Jul_01_1949,PM,3.0.6,60.05889923911877,
,,,,,,,,,,,,,,,,,,,,,0,0,0,0,,,,,,,,,,,,,,,,,,,,,,,,,,,,,,,,,,,,,,,,,,,,,,,,,,,,,,,,,,,,,,,,,,,,,,,,,,,B,1,2019_Jul_01_1949,PM,3.0.6,60.05889923911877,
,,,Explanation1.jpg,space,,,,,,,,,,,,,,,,,,,,,,,,,0,0,0,0,0,0,0,0,,,,,,,,,,,,,,,,,,,,,,,,,,,,,,,,,,,,,,,,,,,,,,,,,,,,,,,,,,,,,,,B,1,2019_Jul_01_1949,PM,3.0.6,60.05889923911877,
,,,Explanation2.jpg,l,,,,,,,,,,,,,,,,,,,,,,,,,0,0,0,0,0,1,1,1,,,,,,,,,,,,,,,,,,,,,,,,,,,,,,,,,,,,,,,,,,,,,,,,,,,,,,,,,,,,,,,B,1,2019_Jul_01_1949,PM,3.0.6,60.05889923911877,
,,,Explanation3.jpg,l,,,,,,,,,,,,,,,,,,,,,,,,,0,0,0,0,0,2,2,2,,,,,,,,,,,,,,,,,,,,,,,,,,,,,,,,,,,,,,,,,,,,,,,,,,,,,,,,,,,,,,,B,1,2019_Jul_01_1949,PM,3.0.6,60.05889923911877,
,,,Explanation4.jpg,l,,,,,,,,,,,,,,,,,,,,,,,,,0,0,0,0,0,3,3,3,,,,,,,,,,,,,,,,,,,,,,,,,,,,,,,,,,,,,,,,,,,,,,,,,,,,,,,,,,,,,,,B,1,2019_Jul_01_1949,PM,3.0.6,60.05889923911877,
,,,Explanation5.jpg,d,,,,,,,,,,,,,,,,,,,,,,,,,0,0,0,0,0,4,4,4,,,,,,,,,,,,,,,,,,,,,,,,,,,,,,,,,,,,,,,,,,,,,,,,,,,,,,,,,,,,,,,B,1,2019_Jul_01_1949,PM,3.0.6,60.05889923911877,
,,,Explanation6.jpg,l,,,,,,,,,,,,,,,,,,,,,,,,,0,0,0,0,0,5,5,5,,,,,,,,,,,,,,,,,,,,,,,,,,,,,,,,,,,,,,,,,,,,,,,,,,,,,,,,,,,,,,,B,1,2019_Jul_01_1949,PM,3.0.6,60.05889923911877,
,,,Explanation7.jpg,space,,,,,,,,,,,,,,,,,,,,,,,,,0,0,0,0,0,6,6,6,,,,,,,,,,,,,,,,,,,,,,,,,,,,,,,,,,,,,,,,,,,,,,,,,,,,,,,,,,,,,,,B,1,2019_Jul_01_1949,PM,3.0.6,60.05889923911877,
,,,Pictures/1710.jpg,,l,,,,,,,,,,,,,,,,,,,,,,,,0,0,0,0,,,,,0,0,0,0,0,0,0,0,,,,,,,,,,,,,,,,,,,,,,,,,,,,,,,,,,,,,,,['l'],[0.5578381676459685],1,0.5578381676459685,,,,,,,,,,,,,B,1,2019_Jul_01_1949,PM,3.0.6,60.05889923911877,
,,,Pictures/2635.jpg,,l,,,,,,,,,,,,,,,,,,,,,,,,0,0,0,0,,,,,0,0,0,0,0,1,1,1,,,,,,,,,,,,,,,,,,,,,,,,,,,,,,,,,,,,,,,None,,0,,,,,,,,,,,,,,B,1,2019_Jul_01_1949,PM,3.0.6,60.05889923911877,
,,,Pictures/1710.jpg,,d,,,,,,,,,,,,,,,,,,,,,,,,0,0,0,0,,,,,0,0,0,0,0,2,2,2,,,,,,,,,,,,,,,,,,,,,,,,,,,,,,,,,,,,,,,None,,0,,,,,,,,,,,,,,B,1,2019_Jul_01_1949,PM,3.0.6,60.05889923911877,
,,,Pictures/5890.jpg,,l,,,,,,,,,,,,,,,,,,,,,,,,0,0,0,0,,,,,0,0,0,0,0,3,3,3,,,,,,,,,,,,,,,,,,,,,,,,,,,,,,,,,,,,,,,None,,0,,,,,,,,,,,,,,B,1,2019_Jul_01_1949,PM,3.0.6,60.05889923911877,
,,,Pictures/1675.jpg,,l,,,,,,,,,,,,,,,,,,,,,,,,0,0,0,0,,,,,0,0,0,0,0,4,4,4,,,,,,,,,,,,,,,,,,,,,,,,,,,,,,,,,,,,,,,None,,0,,,,,,,,,,,,,,B,1,2019_Jul_01_1949,PM,3.0.6,60.05889923911877,
,,,Pictures/2635.jpg,,l,,,,,,,,,,,,,,,,,,,,,,,,0,0,0,0,,,,,0,0,0,0,0,5,5,5,,,,,,,,,,,,,,,,,,,,,,,,,,,,,,,,,,,,,,,None,,0,,,,,,,,,,,,,,B,1,2019_Jul_01_1949,PM,3.0.6,60.05889923911877,
,,,Pictures/1675.jpg,,d,,,,,,,,,,,,,,,,,,,,,,,,0,0,0,0,,,,,0,0,0,0,0,6,6,6,,,,,,,,,,,,,,,,,,,,,,,,,,,,,,,,,,,,,,,None,,0,,,,,,,,,,,,,,B,1,2019_Jul_01_1949,PM,3.0.6,60.05889923911877,
,,,Pictures/7009.jpg,,l,,,,,,,,,,,,,,,,,,,,,,,,0,0,0,0,,,,,0,0,0,0,0,7,7,7,,,,,,,,,,,,,,,,,,,,,,,,,,,,,,,,,,,,,,,None,,0,,,,,,,,,,,,,,B,1,2019_Jul_01_1949,PM,3.0.6,60.05889923911877,
,,,Pictures/7021.jpg,,l,,,,,,,,,,,,,,,,,,,,,,,,0,0,0,0,,,,,0,0,0,0,0,8,8,8,,,,,,,,,,,,,,,,,,,,,,,,,,,,,,,,,,,,,,,None,,0,,,,,,,,,,,,,,B,1,2019_Jul_01_1949,PM,3.0.6,60.05889923911877,
,,,Pictures/7009.jpg,,d,,,,,,,,,,,,,,,,,,,,,,,,0,0,0,0,,,,,0,0,0,0,0,9,9,9,,,,,,,,,,,,,,,,,,,,,,,,,,,,,,,,,,,,,,,None,,0,,,,,,,,,,,,,,B,1,2019_Jul_01_1949,PM,3.0.6,60.05889923911877,
,,,Pictures/5890.jpg,,l,,,,,,,,,,,,,,,,,,,,,,,,0,0,0,0,,,,,0,0,0,0,0,10,10,10,,,,,,,,,,,,,,,,,,,,,,,,,,,,,,,,,,,,,,,None,,0,,,,,,,,,,,,,,B,1,2019_Jul_01_1949,PM,3.0.6,60.05889923911877,
,,,,,,,,,,,,,,,,,,,,,,,,,,,,,0,0,0,0,,,,,0,0,0,0,,,,,,,,,,,,,,,,,,,,,,,,,,,,,,,,,,,,,,,,,,,,,,,n,3.3605591447558254,,,,,,,,,,,B,1,2019_Jul_01_1949,PM,3.0.6,60.05889923911877,
,,,,,,,,,,,,,,,,,,,,,,,,,,,,,0,0,0,0,,,,,,,,,,,,,,,,,,,,,,,,,,,,,,,,,,,,,,,,,,,,,,,,,,,,,,,,,space,1.9130315807415172,,,,,,,,,B,1,2019_Jul_01_1949,PM,3.0.6,60.05889923911877,
,,,,,,PM_list_2.xlsx,PM_images_list_2.xlsx,cue words2.xlsx,cue images2.xlsx,recog_task2.xlsx,recog_task_images2.xlsx,Pictures/6900.jpg,,,,,,,,,,,,,,,,,,,,,,,,,,,,,,,,,0,0,0,0,0,0,0,3,,,,,,,,,,,,,,,,,,,,,,,,,,,,,,,,,,,,,,,,,,,,,,,B,1,2019_Jul_01_1949,PM,3.0.6,60.05889923911877,
,,,,,,PM_list_2.xlsx,PM_images_list_2.xlsx,cue words2.xlsx,cue images2.xlsx,recog_task2.xlsx,recog_task_images2.xlsx,Pictures/4625.jpg,,,,,,,,,,,,,,,,,,,,,,,,,,,,,,,,,0,0,0,0,0,1,1,1,,,,,,,,,,,,,,,,,,,,,,,,,,,,,,,,,,,,,,,,,,,,,,,B,1,2019_Jul_01_1949,PM,3.0.6,60.05889923911877,
,,,,,,PM_list_2.xlsx,PM_images_list_2.xlsx,cue words2.xlsx,cue images2.xlsx,recog_task2.xlsx,recog_task_images2.xlsx,Pictures/3550.jpg,,,,,,,,,,,,,,,,,,,,,,,,,,,,,,,,,0,0,0,0,0,2,2,5,,,,,,,,,,,,,,,,,,,,,,,,,,,,,,,,,,,,,,,,,,,,,,,B,1,2019_Jul_01_1949,PM,3.0.6,60.05889923911877,
,,,,,,PM_list_2.xlsx,PM_images_list_2.xlsx,cue words2.xlsx,cue images2.xlsx,recog_task2.xlsx,recog_task_images2.xlsx,Pictures/5594.jpg,,,,,,,,,,,,,,,,,,,,,,,,,,,,,,,,,0,0,0,0,0,3,3,2,,,,,,,,,,,,,,,,,,,,,,,,,,,,,,,,,,,,,,,,,,,,,,,B,1,2019_Jul_01_1949,PM,3.0.6,60.05889923911877,
,,,,,,PM_list_2.xlsx,PM_images_list_2.xlsx,cue words2.xlsx,cue images2.xlsx,recog_task2.xlsx,recog_task_images2.xlsx,Pictures/2230.jpg,,,,,,,,,,,,,,,,,,,,,,,,,,,,,,,,,0,0,0,0,0,4,4,0,,,,,,,,,,,,,,,,,,,,,,,,,,,,,,,,,,,,,,,,,,,,,,,B,1,2019_Jul_01_1949,PM,3.0.6,60.05889923911877,
,,,,,,PM_list_2.xlsx,PM_images_list_2.xlsx,cue words2.xlsx,cue images2.xlsx,recog_task2.xlsx,recog_task_images2.xlsx,Pictures/2722.jpg,,,,,,,,,,,,,,,,,,,,,,,,,,,,,,,,,0,0,0,0,0,5,5,4,,,,,,,,,,,,,,,,,,,,,,,,,,,,,,,,,,,,,,,,,,,,,,,B,1,2019_Jul_01_1949,PM,3.0.6,60.05889923911877,
,,,,,,PM_list_2.xlsx,PM_images_list_2.xlsx,cue words2.xlsx,cue images2.xlsx,recog_task2.xlsx,recog_task_images2.xlsx,Pictures/2230.jpg,,,,,,,,,,,,,,,,,,,,,,,,,,,,,,,,,0,0,0,0,,,,,0,0,0,0,,,,,,,,,,,,,,,,,,,,,,,,,,,,,,,,,,,,,,,,,,,B,1,2019_Jul_01_1949,PM,3.0.6,60.05889923911877,
,,,,,,PM_list_2.xlsx,PM_images_list_2.xlsx,cue words2.xlsx,cue images2.xlsx,recog_task2.xlsx,recog_task_images2.xlsx,Pictures/5594.jpg,,,,,,,,,,,,,,,,,,,,,,,,,,,,,,,,,0,0,0,0,,,,,0,1,1,2,,,,,,,,,,,,,,,,,,,,,,,,,,,,,,,,,,,,,,,,,,,B,1,2019_Jul_01_1949,PM,3.0.6,60.05889923911877,
,,,,,,PM_list_2.xlsx,PM_images_list_2.xlsx,cue words2.xlsx,cue images2.xlsx,recog_task2.xlsx,recog_task_images2.xlsx,Pictures/3550.jpg,,,,,,,,,,,,,,,,,,,,,,,,,,,,,,,,,0,0,0,0,,,,,0,2,2,5,,,,,,,,,,,,,,,,,,,,,,,,,,,,,,,,,,,,,,,,,,,B,1,2019_Jul_01_1949,PM,3.0.6,60.05889923911877,
,,,,,,PM_list_2.xlsx,PM_images_list_2.xlsx,cue words2.xlsx,cue images2.xlsx,recog_task2.xlsx,recog_task_images2.xlsx,Pictures/6900.jpg,,,,,,,,,,,,,,,,,,,,,,,,,,,,,,,,,0,0,0,0,,,,,0,3,3,3,,,,,,,,,,,,,,,,,,,,,,,,,,,,,,,,,,,,,,,,,,,B,1,2019_Jul_01_1949,PM,3.0.6,60.05889923911877,
,,,,,,PM_list_2.xlsx,PM_images_list_2.xlsx,cue words2.xlsx,cue images2.xlsx,recog_task2.xlsx,recog_task_images2.xlsx,Pictures/2722.jpg,,,,,,,,,,,,,,,,,,,,,,,,,,,,,,,,,0,0,0,0,,,,,0,4,4,4,,,,,,,,,,,,,,,,,,,,,,,,,,,,,,,,,,,,,,,,,,,B,1,2019_Jul_01_1949,PM,3.0.6,60.05889923911877,
,,,,,,PM_list_2.xlsx,PM_images_list_2.xlsx,cue words2.xlsx,cue images2.xlsx,recog_task2.xlsx,recog_task_images2.xlsx,Pictures/4625.jpg,,,,,,,,,,,,,,,,,,,,,,,,,,,,,,,,,0,0,0,0,,,,,0,5,5,1,,,,,,,,,,,,,,,,,,,,,,,,,,,,,,,,,,,,,,,,,,,B,1,2019_Jul_01_1949,PM,3.0.6,60.05889923911877,
,,,,,,PM_list_2.xlsx,PM_images_list_2.xlsx,cue words2.xlsx,cue images2.xlsx,recog_task2.xlsx,recog_task_images2.xlsx,,,,,,,,,,,,,,,,,,,,,,,,,,,,,,,,,,0,0,0,0,,,,,,,,,0,0,0,0,,,,,,,,,,,,,,,,,,,,,,,,,,,,,,,,,,,,,,,B,1,2019_Jul_01_1949,PM,3.0.6,60.05889923911877,
,,,,,,PM_list_2.xlsx,PM_images_list_2.xlsx,cue words2.xlsx,cue images2.xlsx,recog_task2.xlsx,recog_task_images2.xlsx,Pictures/2230.jpg,Pictures/2332.jpg,l,0,NoHit,1,Images,,,,,,,,,,,,,,,,,,,,,,,,,,,0,0,0,0,,,,,,,,,,,,,,,,,0,0,0,0,,,,,,,,,,,,,,,,,,,,,,,None,0,[],[],,,,,B,1,2019_Jul_01_1949,PM,3.0.6,60.05889923911877,
,,,,,,PM_list_2.xlsx,PM_images_list_2.xlsx,cue words2.xlsx,cue images2.xlsx,recog_task2.xlsx,recog_task_images2.xlsx,Pictures/4625.jpg,Pictures/9331.jpg,l,0,NoHit,1,Images,,,,,,,,,,,,,,,,,,,,,,,,,,,0,0,0,0,,,,,,,,,,,,,,,,,0,1,1,1,,,,,,,,,,,,,,,,,,,,,,,None,0,[],[],,,,,B,1,2019_Jul_01_1949,PM,3.0.6,60.05889923911877,
,,,,,,PM_list_2.xlsx,PM_images_list_2.xlsx,cue words2.xlsx,cue images2.xlsx,recog_task2.xlsx,recog_task_images2.xlsx,Pictures/5594.jpg,Pictures/2487.jpg,l,0,NoHit,1,Images,,,,,,,,,,,,,,,,,,,,,,,,,,,0,0,0,0,,,,,,,,,,,,,,,,,0,2,2,2,,,,,,,,,,,,,,,,,,,,,,,None,0,[],[],,,,,B,1,2019_Jul_01_1949,PM,3.0.6,60.05889923911877,
,,,,,,PM_list_2.xlsx,PM_images_list_2.xlsx,cue words2.xlsx,cue images2.xlsx,recog_task2.xlsx,recog_task_images2.xlsx,Pictures/6900.jpg,Pictures/9331.jpg,d,1,Hit,1,Images,,,,,,,,,,,,,,,,,,,,,,,,,,,0,0,0,0,,,,,,,,,,,,,,,,,0,3,3,3,,,,,,,,,,,,,,,,,,,,,,,None,0,[],[],,,,,B,1,2019_Jul_01_1949,PM,3.0.6,60.05889923911877,
,,,,,,PM_list_2.xlsx,PM_images_list_2.xlsx,cue words2.xlsx,cue images2.xlsx,recog_task2.xlsx,recog_task_images2.xlsx,Pictures/2722.jpg,Pictures/5450.jpg,l,0,NoHit,1,Images,,,,,,,,,,,,,,,,,,,,,,,,,,,0,0,0,0,,,,,,,,,,,,,,,,,0,4,4,4,,,,,,,,,,,,,,,,,,,,,,,None,0,[],[],,,,,B,1,2019_Jul_01_1949,PM,3.0.6,60.05889923911877,
,,,,,,PM_list_2.xlsx,PM_images_list_2.xlsx,cue words2.xlsx,cue images2.xlsx,recog_task2.xlsx,recog_task_images2.xlsx,Pictures/3550.jpg,Pictures/8490.jpg,l,0,NoHit,1,Images,,,,,,,,,,,,,,,,,,,,,,,,,,,0,0,0,0,,,,,,,,,,,,,,,,,0,5,5,5,,,,,,,,,,,,,,,,,,,,,,,None,0,[],[],,,,,B,1,2019_Jul_01_1949,PM,3.0.6,60.05889923911877,
,,,,,,PM_list_2.xlsx,PM_images_list_2.xlsx,cue words2.xlsx,cue images2.xlsx,recog_task2.xlsx,recog_task_images2.xlsx,None,Pictures/5450.jpg,d,1,Hit,1,Images,,,,,,,,,,,,,,,,,,,,,,,,,,,0,0,0,0,,,,,,,,,,,,,,,,,0,6,6,6,,,,,,,,,,,,,,,,,,,,,,,None,0,[],[],,,,,B,1,2019_Jul_01_1949,PM,3.0.6,60.05889923911877,
,,,,,,PM_list_2.xlsx,PM_images_list_2.xlsx,cue words2.xlsx,cue images2.xlsx,recog_task2.xlsx,recog_task_images2.xlsx,None,Pictures/8080.jpg,l,0,NoHit,1,Images,,,,,,,,,,,,,,,,,,,,,,,,,,,0,0,0,0,,,,,,,,,,,,,,,,,0,7,7,7,,,,,,,,,,,,,,,,,,,,,,,None,0,[],[],,,,,B,1,2019_Jul_01_1949,PM,3.0.6,60.05889923911877,
,,,,,,PM_list_2.xlsx,PM_images_list_2.xlsx,cue words2.xlsx,cue images2.xlsx,recog_task2.xlsx,recog_task_images2.xlsx,None,Pictures/2260.jpg,l,0,NoHit,1,Images,,,,,,,,,,,,,,,,,,,,,,,,,,,0,0,0,0,,,,,,,,,,,,,,,,,0,8,8,8,,,,,,,,,,,,,,,,,,,,,,,None,0,[],[],,,,,B,1,2019_Jul_01_1949,PM,3.0.6,60.05889923911877,
,,,,,,PM_list_2.xlsx,PM_images_list_2.xlsx,cue words2.xlsx,cue images2.xlsx,recog_task2.xlsx,recog_task_images2.xlsx,None,Pictures/8080.jpg,d,1,Hit,1,Images,,,,,,,,,,,,,,,,,,,,,,,,,,,0,0,0,0,,,,,,,,,,,,,,,,,0,9,9,9,,,,,,,,,,,,,,,,,,,,,,,None,0,[],[],,,,,B,1,2019_Jul_01_1949,PM,3.0.6,60.05889923911877,
,,,,,,PM_list_2.xlsx,PM_images_list_2.xlsx,cue words2.xlsx,cue images2.xlsx,recog_task2.xlsx,recog_task_images2.xlsx,None,Pictures/2230.jpg,h,3,NeuL2,2,Images,,,,,,,,,,,,,,,,,,,,,,,,,,,0,0,0,0,,,,,,,,,,,,,,,,,0,10,10,10,,,,,,,,,,,,,,,,,,,,,,,None,0,[],0,,,,,B,1,2019_Jul_01_1949,PM,3.0.6,60.05889923911877,
,,,,,,PM_list_2.xlsx,PM_images_list_2.xlsx,cue words2.xlsx,cue images2.xlsx,recog_task2.xlsx,recog_task_images2.xlsx,None,Pictures/1726.jpg,l,0,NoHit,1,Images,,,,,,,,,,,,,,,,,,,,,,,,,,,0,0,0,0,,,,,,,,,,,,,,,,,0,11,11,11,,,,,,,,,,,,,,,,,,,,,,,None,0,[],[],,,,,B,1,2019_Jul_01_1949,PM,3.0.6,60.05889923911877,
,,,,,,PM_list_2.xlsx,PM_images_list_2.xlsx,cue words2.xlsx,cue images2.xlsx,recog_task2.xlsx,recog_task_images2.xlsx,None,Pictures/9220.jpg,l,0,NoHit,1,Images,,,,,,,,,,,,,,,,,,,,,,,,,,,0,0,0,0,,,,,,,,,,,,,,,,,0,12,12,12,,,,,,,,,,,,,,,,,,,,,,,None,0,[],[],,,,,B,1,2019_Jul_01_1949,PM,3.0.6,60.05889923911877,
,,,,,,PM_list_2.xlsx,PM_images_list_2.xlsx,cue words2.xlsx,cue images2.xlsx,recog_task2.xlsx,recog_task_images2.xlsx,None,Pictures/2683.jpg,l,0,NoHit,1,Images,,,,,,,,,,,,,,,,,,,,,,,,,,,0,0,0,0,,,,,,,,,,,,,,,,,0,13,13,13,,,,,,,,,,,,,,,,,,,,,,,None,0,[],[],,,,,B,1,2019_Jul_01_1949,PM,3.0.6,60.05889923911877,
,,,,,,PM_list_2.xlsx,PM_images_list_2.xlsx,cue words2.xlsx,cue images2.xlsx,recog_task2.xlsx,recog_task_images2.xlsx,None,Pictures/9220.jpg,d,1,Hit,1,Images,,,,,,,,,,,,,,,,,,,,,,,,,,,0,0,0,0,,,,,,,,,,,,,,,,,0,14,14,14,,,,,,,,,,,,,,,,,,,,,,,None,0,[],[],,,,,B,1,2019_Jul_01_1949,PM,3.0.6,60.05889923911877,
,,,,,,PM_list_2.xlsx,PM_images_list_2.xlsx,cue words2.xlsx,cue images2.xlsx,recog_task2.xlsx,recog_task_images2.xlsx,None,Pictures/8001.jpg,l,0,NoHit,1,Images,,,,,,,,,,,,,,,,,,,,,,,,,,,0,0,0,0,,,,,,,,,,,,,,,,,0,15,15,15,,,,,,,,,,,,,,,,,,,,,,,None,0,[],[],,,,,B,1,2019_Jul_01_1949,PM,3.0.6,60.05889923911877,
,,,,,,PM_list_2.xlsx,PM_images_list_2.xlsx,cue words2.xlsx,cue images2.xlsx,recog_task2.xlsx,recog_task_images2.xlsx,None,Pictures/1230.jpg,l,0,NoHit,1,Images,,,,,,,,,,,,,,,,,,,,,,,,,,,0,0,0,0,,,,,,,,,,,,,,,,,0,16,16,16,,,,,,,,,,,,,,,,,,,,,,,None,0,[],[],,,,,B,1,2019_Jul_01_1949,PM,3.0.6,60.05889923911877,
,,,,,,PM_list_2.xlsx,PM_images_list_2.xlsx,cue words2.xlsx,cue images2.xlsx,recog_task2.xlsx,recog_task_images2.xlsx,None,Pictures/8001.jpg,d,1,Hit,1,Images,,,,,,,,,,,,,,,,,,,,,,,,,,,0,0,0,0,,,,,,,,,,,,,,,,,0,17,17,17,,,,,,,,,,,,,,,,,,,,,,,None,0,[],[],,,,,B,1,2019_Jul_01_1949,PM,3.0.6,60.05889923911877,
,,,,,,PM_list_2.xlsx,PM_images_list_2.xlsx,cue words2.xlsx,cue images2.xlsx,recog_task2.xlsx,recog_task_images2.xlsx,None,Pictures/7640.jpg,l,0,NoHit,1,Images,,,,,,,,,,,,,,,,,,,,,,,,,,,0,0,0,0,,,,,,,,,,,,,,,,,0,18,18,18,,,,,,,,,,,,,,,,,,,,,,,None,0,[],[],,,,,B,1,2019_Jul_01_1949,PM,3.0.6,60.05889923911877,
,,,,,,PM_list_2.xlsx,PM_images_list_2.xlsx,cue words2.xlsx,cue images2.xlsx,recog_task2.xlsx,recog_task_images2.xlsx,None,Pictures/3211.jpg,l,0,NoHit,1,Images,,,,,,,,,,,,,,,,,,,,,,,,,,,0,0,0,0,,,,,,,,,,,,,,,,,0,19,19,19,,,,,,,,,,,,,,,,,,,,,,,None,0,[],[],,,,,B,1,2019_Jul_01_1949,PM,3.0.6,60.05889923911877,
,,,,,,PM_list_2.xlsx,PM_images_list_2.xlsx,cue words2.xlsx,cue images2.xlsx,recog_task2.xlsx,recog_task_images2.xlsx,None,Pictures/1500.jpg,l,0,NoHit,1,Images,,,,,,,,,,,,,,,,,,,,,,,,,,,0,0,0,0,,,,,,,,,,,,,,,,,0,20,20,20,,,,,,,,,,,,,,,,,,,,,,,None,0,[],[],,,,,B,1,2019_Jul_01_1949,PM,3.0.6,60.05889923911877,
,,,,,,PM_list_2.xlsx,PM_images_list_2.xlsx,cue words2.xlsx,cue images2.xlsx,recog_task2.xlsx,recog_task_images2.xlsx,None,Pictures/4625.jpg,h,7,PosH2,2,Images,,,,,,,,,,,,,,,,,,,,,,,,,,,0,0,0,0,,,,,,,,,,,,,,,,,0,21,21,21,,,,,,,,,,,,,,,,,,,,,,,None,0,[],0,,,,,B,1,2019_Jul_01_1949,PM,3.0.6,60.05889923911877,
,,,,,,PM_list_2.xlsx,PM_images_list_2.xlsx,cue words2.xlsx,cue images2.xlsx,recog_task2.xlsx,recog_task_images2.xlsx,None,Pictures/1500.jpg,d,1,Hit,1,Images,,,,,,,,,,,,,,,,,,,,,,,,,,,0,0,0,0,,,,,,,,,,,,,,,,,0,22,22,22,,,,,,,,,,,,,,,,,,,,,,,None,0,[],[],,,,,B,1,2019_Jul_01_1949,PM,3.0.6,60.05889923911877,
,,,,,,PM_list_2.xlsx,PM_images_list_2.xlsx,cue words2.xlsx,cue images2.xlsx,recog_task2.xlsx,recog_task_images2.xlsx,None,Pictures/2446.jpg,l,0,NoHit,1,Images,,,,,,,,,,,,,,,,,,,,,,,,,,,0,0,0,0,,,,,,,,,,,,,,,,,0,23,23,23,,,,,,,,,,,,,,,,,,,,,,,None,0,[],[],,,,,B,1,2019_Jul_01_1949,PM,3.0.6,60.05889923911877,
,,,,,,PM_list_2.xlsx,PM_images_list_2.xlsx,cue words2.xlsx,cue images2.xlsx,recog_task2.xlsx,recog_task_images2.xlsx,None,Pictures/6022.jpg,l,0,NoHit,1,Images,,,,,,,,,,,,,,,,,,,,,,,,,,,0,0,0,0,,,,,,,,,,,,,,,,,0,24,24,24,,,,,,,,,,,,,,,,,,,,,,,None,0,[],[],,,,,B,1,2019_Jul_01_1949,PM,3.0.6,60.05889923911877,
,,,,,,PM_list_2.xlsx,PM_images_list_2.xlsx,cue words2.xlsx,cue images2.xlsx,recog_task2.xlsx,recog_task_images2.xlsx,None,Pictures/5629.jpg,l,0,NoHit,1,Images,,,,,,,,,,,,,,,,,,,,,,,,,,,0,0,0,0,,,,,,,,,,,,,,,,,0,25,25,25,,,,,,,,,,,,,,,,,,,,,,,None,0,[],[],,,,,B,1,2019_Jul_01_1949,PM,3.0.6,60.05889923911877,
,,,,,,PM_list_2.xlsx,PM_images_list_2.xlsx,cue words2.xlsx,cue images2.xlsx,recog_task2.xlsx,recog_task_images2.xlsx,None,Pictures/6022.jpg,d,1,Hit,1,Images,,,,,,,,,,,,,,,,,,,,,,,,,,,0,0,0,0,,,,,,,,,,,,,,,,,0,26,26,26,,,,,,,,,,,,,,,,,,,,,,,None,0,[],[],,,,,B,1,2019_Jul_01_1949,PM,3.0.6,60.05889923911877,
,,,,,,PM_list_2.xlsx,PM_images_list_2.xlsx,cue words2.xlsx,cue images2.xlsx,recog_task2.xlsx,recog_task_images2.xlsx,None,Pictures/8010.jpg,l,0,NoHit,1,Images,,,,,,,,,,,,,,,,,,,,,,,,,,,0,0,0,0,,,,,,,,,,,,,,,,,0,27,27,27,,,,,,,,,,,,,,,,,,,,,,,None,0,[],[],,,,,B,1,2019_Jul_01_1949,PM,3.0.6,60.05889923911877,
,,,,,,PM_list_2.xlsx,PM_images_list_2.xlsx,cue words2.xlsx,cue images2.xlsx,recog_task2.xlsx,recog_task_images2.xlsx,None,Pictures/8160.jpg,l,0,NoHit,1,Images,,,,,,,,,,,,,,,,,,,,,,,,,,,0,0,0,0,,,,,,,,,,,,,,,,,0,28,28,28,,,,,,,,,,,,,,,,,,,,,,,None,0,[],[],,,,,B,1,2019_Jul_01_1949,PM,3.0.6,60.05889923911877,
,,,,,,PM_list_2.xlsx,PM_images_list_2.xlsx,cue words2.xlsx,cue images2.xlsx,recog_task2.xlsx,recog_task_images2.xlsx,None,Pictures/5621.jpg,l,0,NoHit,1,Images,,,,,,,,,,,,,,,,,,,,,,,,,,,0,0,0,0,,,,,,,,,,,,,,,,,0,29,29,29,,,,,,,,,,,,,,,,,,,,,,,None,0,[],[],,,,,B,1,2019_Jul_01_1949,PM,3.0.6,60.05889923911877,
,,,,,,PM_list_2.xlsx,PM_images_list_2.xlsx,cue words2.xlsx,cue images2.xlsx,recog_task2.xlsx,recog_task_images2.xlsx,None,Pictures/8160.jpg,d,1,Hit,1,Images,,,,,,,,,,,,,,,,,,,,,,,,,,,0,0,0,0,,,,,,,,,,,,,,,,,0,30,30,30,,,,,,,,,,,,,,,,,,,,,,,None,0,[],[],,,,,B,1,2019_Jul_01_1949,PM,3.0.6,60.05889923911877,
,,,,,,PM_list_2.xlsx,PM_images_list_2.xlsx,cue words2.xlsx,cue images2.xlsx,recog_task2.xlsx,recog_task_images2.xlsx,None,Pictures/5594.jpg,h,4,PosL2,2,Images,,,,,,,,,,,,,,,,,,,,,,,,,,,0,0,0,0,,,,,,,,,,,,,,,,,0,31,31,31,,,,,,,,,,,,,,,,,,,,,,,None,0,[],0,,,,,B,1,2019_Jul_01_1949,PM,3.0.6,60.05889923911877,
,,,,,,PM_list_2.xlsx,PM_images_list_2.xlsx,cue words2.xlsx,cue images2.xlsx,recog_task2.xlsx,recog_task_images2.xlsx,None,Pictures/9905.jpg,l,0,NoHit,1,Images,,,,,,,,,,,,,,,,,,,,,,,,,,,0,0,0,0,,,,,,,,,,,,,,,,,0,32,32,32,,,,,,,,,,,,,,,,,,,,,,,None,0,[],[],,,,,B,1,2019_Jul_01_1949,PM,3.0.6,60.05889923911877,
,,,,,,PM_list_2.xlsx,PM_images_list_2.xlsx,cue words2.xlsx,cue images2.xlsx,recog_task2.xlsx,recog_task_images2.xlsx,None,Pictures/8499.jpg,l,0,NoHit,1,Images,,,,,,,,,,,,,,,,,,,,,,,,,,,0,0,0,0,,,,,,,,,,,,,,,,,0,33,33,33,,,,,,,,,,,,,,,,,,,,,,,None,0,[],[],,,,,B,1,2019_Jul_01_1949,PM,3.0.6,60.05889923911877,
,,,,,,PM_list_2.xlsx,PM_images_list_2.xlsx,cue words2.xlsx,cue images2.xlsx,recog_task2.xlsx,recog_task_images2.xlsx,None,Pictures/9031.jpg,l,0,NoHit,1,Images,,,,,,,,,,,,,,,,,,,,,,,,,,,0,0,0,0,,,,,,,,,,,,,,,,,0,34,34,34,,,,,,,,,,,,,,,,,,,,,,,None,0,[],[],,,,,B,1,2019_Jul_01_1949,PM,3.0.6,60.05889923911877,
,,,,,,PM_list_2.xlsx,PM_images_list_2.xlsx,cue words2.xlsx,cue images2.xlsx,recog_task2.xlsx,recog_task_images2.xlsx,None,Pictures/8499.jpg,d,1,Hit,1,Images,,,,,,,,,,,,,,,,,,,,,,,,,,,0,0,0,0,,,,,,,,,,,,,,,,,0,35,35,35,,,,,,,,,,,,,,,,,,,,,,,None,0,[],[],,,,,B,1,2019_Jul_01_1949,PM,3.0.6,60.05889923911877,
,,,,,,PM_list_2.xlsx,PM_images_list_2.xlsx,cue words2.xlsx,cue images2.xlsx,recog_task2.xlsx,recog_task_images2.xlsx,None,Pictures/1903.jpg,l,0,NoHit,1,Images,,,,,,,,,,,,,,,,,,,,,,,,,,,0,0,0,0,,,,,,,,,,,,,,,,,0,36,36,36,,,,,,,,,,,,,,,,,,,,,,,None,0,[],[],,,,,B,1,2019_Jul_01_1949,PM,3.0.6,60.05889923911877,
,,,,,,PM_list_2.xlsx,PM_images_list_2.xlsx,cue words2.xlsx,cue images2.xlsx,recog_task2.xlsx,recog_task_images2.xlsx,None,Pictures/9280.jpg,l,0,NoHit,1,Images,,,,,,,,,,,,,,,,,,,,,,,,,,,0,0,0,0,,,,,,,,,,,,,,,,,0,37,37,37,,,,,,,,,,,,,,,,,,,,,,,None,0,[],[],,,,,B,1,2019_Jul_01_1949,PM,3.0.6,60.05889923911877,
,,,,,,PM_list_2.xlsx,PM_images_list_2.xlsx,cue words2.xlsx,cue images2.xlsx,recog_task2.xlsx,recog_task_images2.xlsx,None,Pictures/1945.jpg,l,0,NoHit,1,Images,,,,,,,,,,,,,,,,,,,,,,,,,,,0,0,0,0,,,,,,,,,,,,,,,,,0,38,38,38,,,,,,,,,,,,,,,,,,,,,,,None,0,[],[],,,,,B,1,2019_Jul_01_1949,PM,3.0.6,60.05889923911877,
,,,,,,PM_list_2.xlsx,PM_images_list_2.xlsx,cue words2.xlsx,cue images2.xlsx,recog_task2.xlsx,recog_task_images2.xlsx,None,Pictures/2310.jpg,l,0,NoHit,1,Images,,,,,,,,,,,,,,,,,,,,,,,,,,,0,0,0,0,,,,,,,,,,,,,,,,,0,39,39,39,,,,,,,,,,,,,,,,,,,,,,,None,0,[],[],,,,,B,1,2019_Jul_01_1949,PM,3.0.6,60.05889923911877,
,,,,,,PM_list_2.xlsx,PM_images_list_2.xlsx,cue words2.xlsx,cue images2.xlsx,recog_task2.xlsx,recog_task_images2.xlsx,None,Pictures/1945.jpg,d,1,Hit,1,Images,,,,,,,,,,,,,,,,,,,,,,,,,,,0,0,0,0,,,,,,,,,,,,,,,,,0,40,40,40,,,,,,,,,,,,,,,,,,,,,,,None,0,[],[],,,,,B,1,2019_Jul_01_1949,PM,3.0.6,60.05889923911877,
,,,,,,PM_list_2.xlsx,PM_images_list_2.xlsx,cue words2.xlsx,cue images2.xlsx,recog_task2.xlsx,recog_task_images2.xlsx,None,Pictures/1726.jpg,l,0,NoHit,1,Images,,,,,,,,,,,,,,,,,,,,,,,,,,,0,0,0,0,,,,,,,,,,,,,,,,,0,41,41,41,,,,,,,,,,,,,,,,,,,,,,,None,0,[],[],,,,,B,1,2019_Jul_01_1949,PM,3.0.6,60.05889923911877,
,,,,,,PM_list_2.xlsx,PM_images_list_2.xlsx,cue words2.xlsx,cue images2.xlsx,recog_task2.xlsx,recog_task_images2.xlsx,None,Pictures/6900.jpg,h,6,NeuH2,2,Images,,,,,,,,,,,,,,,,,,,,,,,,,,,0,0,0,0,,,,,,,,,,,,,,,,,0,42,42,42,,,,,,,,,,,,,,,,,,,,,,,None,0,[],0,,,,,B,1,2019_Jul_01_1949,PM,3.0.6,60.05889923911877,
,,,,,,PM_list_2.xlsx,PM_images_list_2.xlsx,cue words2.xlsx,cue images2.xlsx,recog_task2.xlsx,recog_task_images2.xlsx,None,Pictures/6212.jpg,l,0,NoHit,1,Images,,,,,,,,,,,,,,,,,,,,,,,,,,,0,0,0,0,,,,,,,,,,,,,,,,,0,43,43,43,,,,,,,,,,,,,,,,,,,,,,,None,0,[],[],,,,,B,1,2019_Jul_01_1949,PM,3.0.6,60.05889923911877,
,,,,,,PM_list_2.xlsx,PM_images_list_2.xlsx,cue words2.xlsx,cue images2.xlsx,recog_task2.xlsx,recog_task_images2.xlsx,None,Pictures/9031.jpg,l,0,NoHit,1,Images,,,,,,,,,,,,,,,,,,,,,,,,,,,0,0,0,0,,,,,,,,,,,,,,,,,0,44,44,44,,,,,,,,,,,,,,,,,,,,,,,None,0,[],[],,,,,B,1,2019_Jul_01_1949,PM,3.0.6,60.05889923911877,
,,,,,,PM_list_2.xlsx,PM_images_list_2.xlsx,cue words2.xlsx,cue images2.xlsx,recog_task2.xlsx,recog_task_images2.xlsx,None,Pictures/6212.jpg,d,1,Hit,1,Images,,,,,,,,,,,,,,,,,,,,,,,,,,,0,0,0,0,,,,,,,,,,,,,,,,,0,45,45,45,,,,,,,,,,,,,,,,,,,,,,,None,0,[],[],,,,,B,1,2019_Jul_01_1949,PM,3.0.6,60.05889923911877,
,,,,,,PM_list_2.xlsx,PM_images_list_2.xlsx,cue words2.xlsx,cue images2.xlsx,recog_task2.xlsx,recog_task_images2.xlsx,None,Pictures/1080.jpg,l,0,NoHit,1,Images,,,,,,,,,,,,,,,,,,,,,,,,,,,0,0,0,0,,,,,,,,,,,,,,,,,0,46,46,46,,,,,,,,,,,,,,,,,,,,,,,None,0,[],[],,,,,B,1,2019_Jul_01_1949,PM,3.0.6,60.05889923911877,
,,,,,,PM_list_2.xlsx,PM_images_list_2.xlsx,cue words2.xlsx,cue images2.xlsx,recog_task2.xlsx,recog_task_images2.xlsx,None,Pictures/5535.jpg,l,0,NoHit,1,Images,,,,,,,,,,,,,,,,,,,,,,,,,,,0,0,0,0,,,,,,,,,,,,,,,,,0,47,47,47,,,,,,,,,,,,,,,,,,,,,,,None,0,[],[],,,,,B,1,2019_Jul_01_1949,PM,3.0.6,60.05889923911877,
,,,,,,PM_list_2.xlsx,PM_images_list_2.xlsx,cue words2.xlsx,cue images2.xlsx,recog_task2.xlsx,recog_task_images2.xlsx,None,Pictures/2205.jpg,l,0,NoHit,1,Images,,,,,,,,,,,,,,,,,,,,,,,,,,,0,0,0,0,,,,,,,,,,,,,,,,,0,48,48,48,,,,,,,,,,,,,,,,,,,,,,,None,0,[],[],,,,,B,1,2019_Jul_01_1949,PM,3.0.6,60.05889923911877,
,,,,,,PM_list_2.xlsx,PM_images_list_2.xlsx,cue words2.xlsx,cue images2.xlsx,recog_task2.xlsx,recog_task_images2.xlsx,None,Pictures/5535.jpg,d,1,Hit,1,Images,,,,,,,,,,,,,,,,,,,,,,,,,,,0,0,0,0,,,,,,,,,,,,,,,,,0,49,49,49,,,,,,,,,,,,,,,,,,,,,,,None,0,[],[],,,,,B,1,2019_Jul_01_1949,PM,3.0.6,60.05889923911877,
,,,,,,PM_list_2.xlsx,PM_images_list_2.xlsx,cue words2.xlsx,cue images2.xlsx,recog_task2.xlsx,recog_task_images2.xlsx,None,Pictures/6530.jpg,l,0,NoHit,1,Images,,,,,,,,,,,,,,,,,,,,,,,,,,,0,0,0,0,,,,,,,,,,,,,,,,,0,50,50,50,,,,,,,,,,,,,,,,,,,,,,,None,0,[],[],,,,,B,1,2019_Jul_01_1949,PM,3.0.6,60.05889923911877,
,,,,,,PM_list_2.xlsx,PM_images_list_2.xlsx,cue words2.xlsx,cue images2.xlsx,recog_task2.xlsx,recog_task_images2.xlsx,None,Pictures/2722.jpg,h,2,NegL2,2,Images,,,,,,,,,,,,,,,,,,,,,,,,,,,0,0,0,0,,,,,,,,,,,,,,,,,0,51,51,51,,,,,,,,,,,,,,,,,,,,,,,None,0,[],0,,,,,B,1,2019_Jul_01_1949,PM,3.0.6,60.05889923911877,
,,,,,,PM_list_2.xlsx,PM_images_list_2.xlsx,cue words2.xlsx,cue images2.xlsx,recog_task2.xlsx,recog_task_images2.xlsx,None,Pictures/7270.jpg,l,0,NoHit,1,Images,,,,,,,,,,,,,,,,,,,,,,,,,,,0,0,0,0,,,,,,,,,,,,,,,,,0,52,52,52,,,,,,,,,,,,,,,,,,,,,,,None,0,[],[],,,,,B,1,2019_Jul_01_1949,PM,3.0.6,60.05889923911877,
,,,,,,PM_list_2.xlsx,PM_images_list_2.xlsx,cue words2.xlsx,cue images2.xlsx,recog_task2.xlsx,recog_task_images2.xlsx,None,Pictures/5621.jpg,l,0,NoHit,1,Images,,,,,,,,,,,,,,,,,,,,,,,,,,,0,0,0,0,,,,,,,,,,,,,,,,,0,53,53,53,,,,,,,,,,,,,,,,,,,,,,,None,0,[],[],,,,,B,1,2019_Jul_01_1949,PM,3.0.6,60.05889923911877,
,,,,,,PM_list_2.xlsx,PM_images_list_2.xlsx,cue words2.xlsx,cue images2.xlsx,recog_task2.xlsx,recog_task_images2.xlsx,None,Pictures/7270.jpg,d,1,Hit,1,Images,,,,,,,,,,,,,,,,,,,,,,,,,,,0,0,0,0,,,,,,,,,,,,,,,,,0,54,54,54,,,,,,,,,,,,,,,,,,,,,,,None,0,[],[],,,,,B,1,2019_Jul_01_1949,PM,3.0.6,60.05889923911877,
,,,,,,PM_list_2.xlsx,PM_images_list_2.xlsx,cue words2.xlsx,cue images2.xlsx,recog_task2.xlsx,recog_task_images2.xlsx,None,Pictures/2810.jpg,l,0,NoHit,1,Images,,,,,,,,,,,,,,,,,,,,,,,,,,,0,0,0,0,,,,,,,,,,,,,,,,,0,55,55,55,,,,,,,,,,,,,,,,,,,,,,,None,0,[],[],,,,,B,1,2019_Jul_01_1949,PM,3.0.6,60.05889923911877,
,,,,,,PM_list_2.xlsx,PM_images_list_2.xlsx,cue words2.xlsx,cue images2.xlsx,recog_task2.xlsx,recog_task_images2.xlsx,None,Pictures/7502.jpg,l,0,NoHit,1,Images,,,,,,,,,,,,,,,,,,,,,,,,,,,0,0,0,0,,,,,,,,,,,,,,,,,0,56,56,56,,,,,,,,,,,,,,,,,,,,,,,None,0,[],[],,,,,B,1,2019_Jul_01_1949,PM,3.0.6,60.05889923911877,
,,,,,,PM_list_2.xlsx,PM_images_list_2.xlsx,cue words2.xlsx,cue images2.xlsx,recog_task2.xlsx,recog_task_images2.xlsx,None,Pictures/1302.jpg,l,0,NoHit,1,Images,,,,,,,,,,,,,,,,,,,,,,,,,,,0,0,0,0,,,,,,,,,,,,,,,,,0,57,57,57,,,,,,,,,,,,,,,,,,,,,,,None,0,[],[],,,,,B,1,2019_Jul_01_1949,PM,3.0.6,60.05889923911877,
,,,,,,PM_list_2.xlsx,PM_images_list_2.xlsx,cue words2.xlsx,cue images2.xlsx,recog_task2.xlsx,recog_task_images2.xlsx,None,Pictures/2216.jpg,l,0,NoHit,1,Images,,,,,,,,,,,,,,,,,,,,,,,,,,,0,0,0,0,,,,,,,,,,,,,,,,,0,58,58,58,,,,,,,,,,,,,,,,,,,,,,,None,0,[],[],,,,,B,1,2019_Jul_01_1949,PM,3.0.6,60.05889923911877,
,,,,,,PM_list_2.xlsx,PM_images_list_2.xlsx,cue words2.xlsx,cue images2.xlsx,recog_task2.xlsx,recog_task_images2.xlsx,None,Pictures/1302.jpg,d,1,Hit,1,Images,,,,,,,,,,,,,,,,,,,,,,,,,,,0,0,0,0,,,,,,,,,,,,,,,,,0,59,59,59,,,,,,,,,,,,,,,,,,,,,,,None,0,[],[],,,,,B,1,2019_Jul_01_1949,PM,3.0.6,60.05889923911877,
,,,,,,PM_list_2.xlsx,PM_images_list_2.xlsx,cue words2.xlsx,cue images2.xlsx,recog_task2.xlsx,recog_task_images2.xlsx,None,Pictures/3550.jpg,h,5,NegH2,2,Images,,,,,,,,,,,,,,,,,,,,,,,,,,,0,0,0,0,,,,,,,,,,,,,,,,,0,60,60,60,,,,,,,,,,,,,,,,,,,,,,,None,0,[],0,,,,,B,1,2019_Jul_01_1949,PM,3.0.6,60.05889923911877,
,,,,,,PM_list_2.xlsx,PM_images_list_2.xlsx,cue words2.xlsx,cue images2.xlsx,recog_task2.xlsx,recog_task_images2.xlsx,None,Pictures/8497.jpg,l,0,NoHit,1,Images,,,,,,,,,,,,,,,,,,,,,,,,,,,0,0,0,0,,,,,,,,,,,,,,,,,0,61,61,61,,,,,,,,,,,,,,,,,,,,,,,None,0,[],[],,,,,B,1,2019_Jul_01_1949,PM,3.0.6,60.05889923911877,
,,,,,,PM_list_2.xlsx,PM_images_list_2.xlsx,cue words2.xlsx,cue images2.xlsx,recog_task2.xlsx,recog_task_images2.xlsx,None,Pictures/1310.jpg,l,0,NoHit,1,Images,,,,,,,,,,,,,,,,,,,,,,,,,,,0,0,0,0,,,,,,,,,,,,,,,,,0,62,62,62,,,,,,,,,,,,,,,,,,,,,,,None,0,[],[],,,,,B,1,2019_Jul_01_1949,PM,3.0.6,60.05889923911877,
,,,,,,PM_list_2.xlsx,PM_images_list_2.xlsx,cue words2.xlsx,cue images2.xlsx,recog_task2.xlsx,recog_task_images2.xlsx,None,Pictures/8497.jpg,d,1,Hit,1,Images,,,,,,,,,,,,,,,,,,,,,,,,,,,0,0,0,0,,,,,,,,,,,,,,,,,0,63,63,63,,,,,,,,,,,,,,,,,,,,,,,None,0,[],[],,,,,B,1,2019_Jul_01_1949,PM,3.0.6,60.05889923911877,
,,,,,,PM_list_2.xlsx,PM_images_list_2.xlsx,cue words2.xlsx,cue images2.xlsx,recog_task2.xlsx,recog_task_images2.xlsx,None,Pictures/2276.jpg,l,0,NoHit,1,Images,,,,,,,,,,,,,,,,,,,,,,,,,,,0,0,0,0,,,,,,,,,,,,,,,,,0,64,64,64,,,,,,,,,,,,,,,,,,,,,,,None,0,[],[],,,,,B,1,2019_Jul_01_1949,PM,3.0.6,60.05889923911877,
,,,,,,PM_list_2.xlsx,PM_images_list_2.xlsx,cue words2.xlsx,cue images2.xlsx,recog_task2.xlsx,recog_task_images2.xlsx,None,Pictures/9440.jpg,l,0,NoHit,1,Images,,,,,,,,,,,,,,,,,,,,,,,,,,,0,0,0,0,,,,,,,,,,,,,,,,,0,65,65,65,,,,,,,,,,,,,,,,,,,,,,,None,0,[],[],,,,,B,1,2019_Jul_01_1949,PM,3.0.6,60.05889923911877,
,,,,,,PM_list_2.xlsx,PM_images_list_2.xlsx,cue words2.xlsx,cue images2.xlsx,recog_task2.xlsx,recog_task_images2.xlsx,None,Pictures/2276.jpg,d,1,Hit,1,Images,,,,,,,,,,,,,,,,,,,,,,,,,,,0,0,0,0,,,,,,,,,,,,,,,,,0,66,66,66,,,,,,,,,,,,,,,,,,,,,,,None,0,[],[],,,,,B,1,2019_Jul_01_1949,PM,3.0.6,60.05889923911877,
,,,,,,PM_list_2.xlsx,PM_images_list_2.xlsx,cue words2.xlsx,cue images2.xlsx,recog_task2.xlsx,recog_task_images2.xlsx,None,Pictures/7640.jpg,l,0,NoHit,1,Images,,,,,,,,,,,,,,,,,,,,,,,,,,,0,0,0,0,,,,,,,,,,,,,,,,,0,67,67,67,,,,,,,,,,,,,,,,,,,,,,,None,0,[],[],,,,,B,1,2019_Jul_01_1949,PM,3.0.6,60.05889923911877,
,,,,,,PM_list_2.xlsx,PM_images_list_2.xlsx,cue words2.xlsx,cue images2.xlsx,recog_task2.xlsx,recog_task_images2.xlsx,None,Pictures/8475.jpg,l,0,NoHit,1,Images,,,,,,,,,,,,,,,,,,,,,,,,,,,0,0,0,0,,,,,,,,,,,,,,,,,0,68,68,68,,,,,,,,,,,,,,,,,,,,,,,None,0,[],[],,,,,B,1,2019_Jul_01_1949,PM,3.0.6,60.05889923911877,
,,,,,,PM_list_2.xlsx,PM_images_list_2.xlsx,cue words2.xlsx,cue images2.xlsx,recog_task2.xlsx,recog_task_images2.xlsx,None,Pictures/3310.jpg,l,0,NoHit,1,Images,,,,,,,,,,,,,,,,,,,,,,,,,,,0,0,0,0,,,,,,,,,,,,,,,,,0,69,69,69,,,,,,,,,,,,,,,,,,,,,,,None,0,[],[],,,,,B,1,2019_Jul_01_1949,PM,3.0.6,60.05889923911877,
,,,,,,PM_list_2.xlsx,PM_images_list_2.xlsx,cue words2.xlsx,cue images2.xlsx,recog_task2.xlsx,recog_task_images2.xlsx,None,Pictures/2722.jpg,h,2,NegL2,2,Images,,,,,,,,,,,,,,,,,,,,,,,,,,,0,0,0,0,,,,,,,,,,,,,,,,,0,70,70,70,,,,,,,,,,,,,,,,,,,,,,,None,0,[],0,,,,,B,1,2019_Jul_01_1949,PM,3.0.6,60.05889923911877,
,,,,,,PM_list_2.xlsx,PM_images_list_2.xlsx,cue words2.xlsx,cue images2.xlsx,recog_task2.xlsx,recog_task_images2.xlsx,None,Pictures/3310.jpg,d,1,Hit,1,Images,,,,,,,,,,,,,,,,,,,,,,,,,,,0,0,0,0,,,,,,,,,,,,,,,,,0,71,71,71,,,,,,,,,,,,,,,,,,,,,,,None,0,[],[],,,,,B,1,2019_Jul_01_1949,PM,3.0.6,60.05889923911877,
,,,,,,PM_list_2.xlsx,PM_images_list_2.xlsx,cue words2.xlsx,cue images2.xlsx,recog_task2.xlsx,recog_task_images2.xlsx,None,Pictures/7365.jpg,l,0,NoHit,1,Images,,,,,,,,,,,,,,,,,,,,,,,,,,,0,0,0,0,,,,,,,,,,,,,,,,,0,72,72,72,,,,,,,,,,,,,,,,,,,,,,,None,0,[],[],,,,,B,1,2019_Jul_01_1949,PM,3.0.6,60.05889923911877,
,,,,,,PM_list_2.xlsx,PM_images_list_2.xlsx,cue words2.xlsx,cue images2.xlsx,recog_task2.xlsx,recog_task_images2.xlsx,None,Pictures/2683.jpg,l,0,NoHit,1,Images,,,,,,,,,,,,,,,,,,,,,,,,,,,0,0,0,0,,,,,,,,,,,,,,,,,0,73,73,73,,,,,,,,,,,,,,,,,,,,,,,None,0,[],[],,,,,B,1,2019_Jul_01_1949,PM,3.0.6,60.05889923911877,
,,,,,,PM_list_2.xlsx,PM_images_list_2.xlsx,cue words2.xlsx,cue images2.xlsx,recog_task2.xlsx,recog_task_images2.xlsx,None,Pictures/2660.jpg,l,0,NoHit,1,Images,,,,,,,,,,,,,,,,,,,,,,,,,,,0,0,0,0,,,,,,,,,,,,,,,,,0,74,74,74,,,,,,,,,,,,,,,,,,,,,,,None,0,[],[],,,,,B,1,2019_Jul_01_1949,PM,3.0.6,60.05889923911877,
,,,,,,PM_list_2.xlsx,PM_images_list_2.xlsx,cue words2.xlsx,cue images2.xlsx,recog_task2.xlsx,recog_task_images2.xlsx,None,Pictures/6243.jpg,l,0,NoHit,1,Images,,,,,,,,,,,,,,,,,,,,,,,,,,,0,0,0,0,,,,,,,,,,,,,,,,,0,75,75,75,,,,,,,,,,,,,,,,,,,,,,,None,0,[],[],,,,,B,1,2019_Jul_01_1949,PM,3.0.6,60.05889923911877,
,,,,,,PM_list_2.xlsx,PM_images_list_2.xlsx,cue words2.xlsx,cue images2.xlsx,recog_task2.xlsx,recog_task_images2.xlsx,None,Pictures/2660.jpg,d,1,Hit,1,Images,,,,,,,,,,,,,,,,,,,,,,,,,,,0,0,0,0,,,,,,,,,,,,,,,,,0,76,76,76,,,,,,,,,,,,,,,,,,,,,,,None,0,[],[],,,,,B,1,2019_Jul_01_1949,PM,3.0.6,60.05889923911877,
,,,,,,PM_list_2.xlsx,PM_images_list_2.xlsx,cue words2.xlsx,cue images2.xlsx,recog_task2.xlsx,recog_task_images2.xlsx,None,Pictures/9440.jpg,l,0,NoHit,1,Images,,,,,,,,,,,,,,,,,,,,,,,,,,,0,0,0,0,,,,,,,,,,,,,,,,,0,77,77,77,,,,,,,,,,,,,,,,,,,,,,,None,0,[],[],,,,,B,1,2019_Jul_01_1949,PM,3.0.6,60.05889923911877,
,,,,,,PM_list_2.xlsx,PM_images_list_2.xlsx,cue words2.xlsx,cue images2.xlsx,recog_task2.xlsx,recog_task_images2.xlsx,None,Pictures/1080.jpg,l,0,NoHit,1,Images,,,,,,,,,,,,,,,,,,,,,,,,,,,0,0,0,0,,,,,,,,,,,,,,,,,0,78,78,78,,,,,,,,,,,,,,,,,,,,,,,None,0,[],[],,,,,B,1,2019_Jul_01_1949,PM,3.0.6,60.05889923911877,
,,,,,,PM_list_2.xlsx,PM_images_list_2.xlsx,cue words2.xlsx,cue images2.xlsx,recog_task2.xlsx,recog_task_images2.xlsx,None,Pictures/1630.jpg,l,0,NoHit,1,Images,,,,,,,,,,,,,,,,,,,,,,,,,,,0,0,0,0,,,,,,,,,,,,,,,,,0,79,79,79,,,,,,,,,,,,,,,,,,,,,,,None,0,[],[],,,,,B,1,2019_Jul_01_1949,PM,3.0.6,60.05889923911877,
,,,,,,PM_list_2.xlsx,PM_images_list_2.xlsx,cue words2.xlsx,cue images2.xlsx,recog_task2.xlsx,recog_task_images2.xlsx,None,Pictures/2395.jpg,l,0,NoHit,1,Images,,,,,,,,,,,,,,,,,,,,,,,,,,,0,0,0,0,,,,,,,,,,,,,,,,,0,80,80,80,,,,,,,,,,,,,,,,,,,,,,,None,0,[],[],,,,,B,1,2019_Jul_01_1949,PM,3.0.6,60.05889923911877,
,,,,,,PM_list_2.xlsx,PM_images_list_2.xlsx,cue words2.xlsx,cue images2.xlsx,recog_task2.xlsx,recog_task_images2.xlsx,None,Pictures/1630.jpg,d,1,Hit,1,Images,,,,,,,,,,,,,,,,,,,,,,,,,,,0,0,0,0,,,,,,,,,,,,,,,,,0,81,81,81,,,,,,,,,,,,,,,,,,,,,,,None,0,[],[],,,,,B,1,2019_Jul_01_1949,PM,3.0.6,60.05889923911877,
,,,,,,PM_list_2.xlsx,PM_images_list_2.xlsx,cue words2.xlsx,cue images2.xlsx,recog_task2.xlsx,recog_task_images2.xlsx,None,Pictures/5594.jpg,h,4,PosL2,2,Images,,,,,,,,,,,,,,,,,,,,,,,,,,,0,0,0,0,,,,,,,,,,,,,,,,,0,82,82,82,,,,,,,,,,,,,,,,,,,,,,,None,0,[],0,,,,,B,1,2019_Jul_01_1949,PM,3.0.6,60.05889923911877,
,,,,,,PM_list_2.xlsx,PM_images_list_2.xlsx,cue words2.xlsx,cue images2.xlsx,recog_task2.xlsx,recog_task_images2.xlsx,None,Pictures/7046.jpg,l,0,NoHit,1,Images,,,,,,,,,,,,,,,,,,,,,,,,,,,0,0,0,0,,,,,,,,,,,,,,,,,0,83,83,83,,,,,,,,,,,,,,,,,,,,,,,None,0,[],[],,,,,B,1,2019_Jul_01_1949,PM,3.0.6,60.05889923911877,
,,,,,,PM_list_2.xlsx,PM_images_list_2.xlsx,cue words2.xlsx,cue images2.xlsx,recog_task2.xlsx,recog_task_images2.xlsx,None,Pictures/9905.jpg,l,0,NoHit,1,Images,,,,,,,,,,,,,,,,,,,,,,,,,,,0,0,0,0,,,,,,,,,,,,,,,,,0,84,84,84,,,,,,,,,,,,,,,,,,,,,,,None,0,[],[],,,,,B,1,2019_Jul_01_1949,PM,3.0.6,60.05889923911877,
,,,,,,PM_list_2.xlsx,PM_images_list_2.xlsx,cue words2.xlsx,cue images2.xlsx,recog_task2.xlsx,recog_task_images2.xlsx,None,Pictures/7046.jpg,d,1,Hit,1,Images,,,,,,,,,,,,,,,,,,,,,,,,,,,0,0,0,0,,,,,,,,,,,,,,,,,0,85,85,85,,,,,,,,,,,,,,,,,,,,,,,None,0,[],[],,,,,B,1,2019_Jul_01_1949,PM,3.0.6,60.05889923911877,
,,,,,,PM_list_2.xlsx,PM_images_list_2.xlsx,cue words2.xlsx,cue images2.xlsx,recog_task2.xlsx,recog_task_images2.xlsx,None,Pictures/7365.jpg,l,0,NoHit,1,Images,,,,,,,,,,,,,,,,,,,,,,,,,,,0,0,0,0,,,,,,,,,,,,,,,,,0,86,86,86,,,,,,,,,,,,,,,,,,,,,,,None,0,[],[],,,,,B,1,2019_Jul_01_1949,PM,3.0.6,60.05889923911877,
,,,,,,PM_list_2.xlsx,PM_images_list_2.xlsx,cue words2.xlsx,cue images2.xlsx,recog_task2.xlsx,recog_task_images2.xlsx,None,Pictures/2156.jpg,l,0,NoHit,1,Images,,,,,,,,,,,,,,,,,,,,,,,,,,,0,0,0,0,,,,,,,,,,,,,,,,,0,87,87,87,,,,,,,,,,,,,,,,,,,,,,,None,0,[],[],,,,,B,1,2019_Jul_01_1949,PM,3.0.6,60.05889923911877,
,,,,,,PM_list_2.xlsx,PM_images_list_2.xlsx,cue words2.xlsx,cue images2.xlsx,recog_task2.xlsx,recog_task_images2.xlsx,None,Pictures/2446.jpg,l,0,NoHit,1,Images,,,,,,,,,,,,,,,,,,,,,,,,,,,0,0,0,0,,,,,,,,,,,,,,,,,0,88,88,88,,,,,,,,,,,,,,,,,,,,,,,None,0,[],[],,,,,B,1,2019_Jul_01_1949,PM,3.0.6,60.05889923911877,
,,,,,,PM_list_2.xlsx,PM_images_list_2.xlsx,cue words2.xlsx,cue images2.xlsx,recog_task2.xlsx,recog_task_images2.xlsx,None,Pictures/2156.jpg,d,1,Hit,1,Images,,,,,,,,,,,,,,,,,,,,,,,,,,,0,0,0,0,,,,,,,,,,,,,,,,,0,89,89,89,,,,,,,,,,,,,,,,,,,,,,,None,0,[],[],,,,,B,1,2019_Jul_01_1949,PM,3.0.6,60.05889923911877,
,,,,,,PM_list_2.xlsx,PM_images_list_2.xlsx,cue words2.xlsx,cue images2.xlsx,recog_task2.xlsx,recog_task_images2.xlsx,None,Pictures/3211.jpg,l,0,NoHit,1,Images,,,,,,,,,,,,,,,,,,,,,,,,,,,0,0,0,0,,,,,,,,,,,,,,,,,0,90,90,90,,,,,,,,,,,,,,,,,,,,,,,None,0,[],[],,,,,B,1,2019_Jul_01_1949,PM,3.0.6,60.05889923911877,
,,,,,,PM_list_2.xlsx,PM_images_list_2.xlsx,cue words2.xlsx,cue images2.xlsx,recog_task2.xlsx,recog_task_images2.xlsx,None,Pictures/2216.jpg,l,0,NoHit,1,Images,,,,,,,,,,,,,,,,,,,,,,,,,,,0,0,0,0,,,,,,,,,,,,,,,,,0,91,91,91,,,,,,,,,,,,,,,,,,,,,,,None,0,[],[],,,,,B,1,2019_Jul_01_1949,PM,3.0.6,60.05889923911877,
,,,,,,PM_list_2.xlsx,PM_images_list_2.xlsx,cue words2.xlsx,cue images2.xlsx,recog_task2.xlsx,recog_task_images2.xlsx,None,Pictures/5940.jpg,l,0,NoHit,1,Images,,,,,,,,,,,,,,,,,,,,,,,,,,,0,0,0,0,,,,,,,,,,,,,,,,,0,92,92,92,,,,,,,,,,,,,,,,,,,,,,,None,0,[],[],,,,,B,1,2019_Jul_01_1949,PM,3.0.6,60.05889923911877,
,,,,,,PM_list_2.xlsx,PM_images_list_2.xlsx,cue words2.xlsx,cue images2.xlsx,recog_task2.xlsx,recog_task_images2.xlsx,None,Pictures/2230.jpg,h,3,NeuL2,2,Images,,,,,,,,,,,,,,,,,,,,,,,,,,,0,0,0,0,,,,,,,,,,,,,,,,,0,93,93,93,,,,,,,,,,,,,,,,,,,,,,,None,0,[],0,,,,,B,1,2019_Jul_01_1949,PM,3.0.6,60.05889923911877,
,,,,,,PM_list_2.xlsx,PM_images_list_2.xlsx,cue words2.xlsx,cue images2.xlsx,recog_task2.xlsx,recog_task_images2.xlsx,None,Pictures/5940.jpg,d,1,Hit,1,Images,,,,,,,,,,,,,,,,,,,,,,,,,,,0,0,0,0,,,,,,,,,,,,,,,,,0,94,94,94,,,,,,,,,,,,,,,,,,,,,,,None,0,[],[],,,,,B,1,2019_Jul_01_1949,PM,3.0.6,60.05889923911877,
,,,,,,PM_list_2.xlsx,PM_images_list_2.xlsx,cue words2.xlsx,cue images2.xlsx,recog_task2.xlsx,recog_task_images2.xlsx,None,Pictures/8475.jpg,l,0,NoHit,1,Images,,,,,,,,,,,,,,,,,,,,,,,,,,,0,0,0,0,,,,,,,,,,,,,,,,,0,95,95,95,,,,,,,,,,,,,,,,,,,,,,,None,0,[],[],,,,,B,1,2019_Jul_01_1949,PM,3.0.6,60.05889923911877,
,,,,,,PM_list_2.xlsx,PM_images_list_2.xlsx,cue words2.xlsx,cue images2.xlsx,recog_task2.xlsx,recog_task_images2.xlsx,None,Pictures/9000.jpg,l,0,NoHit,1,Images,,,,,,,,,,,,,,,,,,,,,,,,,,,0,0,0,0,,,,,,,,,,,,,,,,,0,96,96,96,,,,,,,,,,,,,,,,,,,,,,,None,0,[],[],,,,,B,1,2019_Jul_01_1949,PM,3.0.6,60.05889923911877,
,,,,,,PM_list_2.xlsx,PM_images_list_2.xlsx,cue words2.xlsx,cue images2.xlsx,recog_task2.xlsx,recog_task_images2.xlsx,None,Pictures/6530.jpg,l,0,NoHit,1,Images,,,,,,,,,,,,,,,,,,,,,,,,,,,0,0,0,0,,,,,,,,,,,,,,,,,0,97,97,97,,,,,,,,,,,,,,,,,,,,,,,None,0,[],[],,,,,B,1,2019_Jul_01_1949,PM,3.0.6,60.05889923911877,
,,,,,,PM_list_2.xlsx,PM_images_list_2.xlsx,cue words2.xlsx,cue images2.xlsx,recog_task2.xlsx,recog_task_images2.xlsx,None,Pictures/9000.jpg,d,1,Hit,1,Images,,,,,,,,,,,,,,,,,,,,,,,,,,,0,0,0,0,,,,,,,,,,,,,,,,,0,98,98,98,,,,,,,,,,,,,,,,,,,,,,,None,0,[],[],,,,,B,1,2019_Jul_01_1949,PM,3.0.6,60.05889923911877,
,,,,,,PM_list_2.xlsx,PM_images_list_2.xlsx,cue words2.xlsx,cue images2.xlsx,recog_task2.xlsx,recog_task_images2.xlsx,None,Pictures/2400.jpg,l,0,NoHit,1,Images,,,,,,,,,,,,,,,,,,,,,,,,,,,0,0,0,0,,,,,,,,,,,,,,,,,0,99,99,99,,,,,,,,,,,,,,,,,,,,,,,None,0,[],[],,,,,B,1,2019_Jul_01_1949,PM,3.0.6,60.05889923911877,
,,,,,,PM_list_2.xlsx,PM_images_list_2.xlsx,cue words2.xlsx,cue images2.xlsx,recog_task2.xlsx,recog_task_images2.xlsx,None,Pictures/5629.jpg,l,0,NoHit,1,Images,,,,,,,,,,,,,,,,,,,,,,,,,,,0,0,0,0,,,,,,,,,,,,,,,,,0,100,100,100,,,,,,,,,,,,,,,,,,,,,,,None,0,[],[],,,,,B,1,2019_Jul_01_1949,PM,3.0.6,60.05889923911877,
,,,,,,PM_list_2.xlsx,PM_images_list_2.xlsx,cue words2.xlsx,cue images2.xlsx,recog_task2.xlsx,recog_task_images2.xlsx,None,Pictures/2400.jpg,d,1,Hit,1,Images,,,,,,,,,,,,,,,,,,,,,,,,,,,0,0,0,0,,,,,,,,,,,,,,,,,0,101,101,101,,,,,,,,,,,,,,,,,,,,,,,None,0,[],[],,,,,B,1,2019_Jul_01_1949,PM,3.0.6,60.05889923911877,
,,,,,,PM_list_2.xlsx,PM_images_list_2.xlsx,cue words2.xlsx,cue images2.xlsx,recog_task2.xlsx,recog_task_images2.xlsx,None,Pictures/9425.jpg,l,0,NoHit,1,Images,,,,,,,,,,,,,,,,,,,,,,,,,,,0,0,0,0,,,,,,,,,,,,,,,,,0,102,102,102,,,,,,,,,,,,,,,,,,,,,,,None,0,[],[],,,,,B,1,2019_Jul_01_1949,PM,3.0.6,60.05889923911877,
,,,,,,PM_list_2.xlsx,PM_images_list_2.xlsx,cue words2.xlsx,cue images2.xlsx,recog_task2.xlsx,recog_task_images2.xlsx,None,Pictures/1230.jpg,l,0,NoHit,1,Images,,,,,,,,,,,,,,,,,,,,,,,,,,,0,0,0,0,,,,,,,,,,,,,,,,,0,103,103,103,,,,,,,,,,,,,,,,,,,,,,,None,0,[],[],,,,,B,1,2019_Jul_01_1949,PM,3.0.6,60.05889923911877,
,,,,,,PM_list_2.xlsx,PM_images_list_2.xlsx,cue words2.xlsx,cue images2.xlsx,recog_task2.xlsx,recog_task_images2.xlsx,None,Pictures/9425.jpg,d,1,Hit,1,Images,,,,,,,,,,,,,,,,,,,,,,,,,,,0,0,0,0,,,,,,,,,,,,,,,,,0,104,104,104,,,,,,,,,,,,,,,,,,,,,,,None,0,[],[],,,,,B,1,2019_Jul_01_1949,PM,3.0.6,60.05889923911877,
,,,,,,PM_list_2.xlsx,PM_images_list_2.xlsx,cue words2.xlsx,cue images2.xlsx,recog_task2.xlsx,recog_task_images2.xlsx,None,Pictures/3550.jpg,h,5,NegH2,2,Images,,,,,,,,,,,,,,,,,,,,,,,,,,,0,0,0,0,,,,,,,,,,,,,,,,,0,105,105,105,,,,,,,,,,,,,,,,,,,,,,,None,0,[],0,,,,,B,1,2019_Jul_01_1949,PM,3.0.6,60.05889923911877,
,,,,,,PM_list_2.xlsx,PM_images_list_2.xlsx,cue words2.xlsx,cue images2.xlsx,recog_task2.xlsx,recog_task_images2.xlsx,None,Pictures/6243.jpg,l,0,NoHit,1,Images,,,,,,,,,,,,,,,,,,,,,,,,,,,0,0,0,0,,,,,,,,,,,,,,,,,0,106,106,106,,,,,,,,,,,,,,,,,,,,,,,None,0,[],[],,,,,B,1,2019_Jul_01_1949,PM,3.0.6,60.05889923911877,
,,,,,,PM_list_2.xlsx,PM_images_list_2.xlsx,cue words2.xlsx,cue images2.xlsx,recog_task2.xlsx,recog_task_images2.xlsx,None,Pictures/1920.jpg,l,0,NoHit,1,Images,,,,,,,,,,,,,,,,,,,,,,,,,,,0,0,0,0,,,,,,,,,,,,,,,,,0,107,107,107,,,,,,,,,,,,,,,,,,,,,,,None,0,[],[],,,,,B,1,2019_Jul_01_1949,PM,3.0.6,60.05889923911877,
,,,,,,PM_list_2.xlsx,PM_images_list_2.xlsx,cue words2.xlsx,cue images2.xlsx,recog_task2.xlsx,recog_task_images2.xlsx,None,Pictures/2395.jpg,l,0,NoHit,1,Images,,,,,,,,,,,,,,,,,,,,,,,,,,,0,0,0,0,,,,,,,,,,,,,,,,,0,108,108,108,,,,,,,,,,,,,,,,,,,,,,,None,0,[],[],,,,,B,1,2019_Jul_01_1949,PM,3.0.6,60.05889923911877,
,,,,,,PM_list_2.xlsx,PM_images_list_2.xlsx,cue words2.xlsx,cue images2.xlsx,recog_task2.xlsx,recog_task_images2.xlsx,None,Pictures/1920.jpg,d,1,Hit,1,Images,,,,,,,,,,,,,,,,,,,,,,,,,,,0,0,0,0,,,,,,,,,,,,,,,,,0,109,109,109,,,,,,,,,,,,,,,,,,,,,,,None,0,[],[],,,,,B,1,2019_Jul_01_1949,PM,3.0.6,60.05889923911877,
,,,,,,PM_list_2.xlsx,PM_images_list_2.xlsx,cue words2.xlsx,cue images2.xlsx,recog_task2.xlsx,recog_task_images2.xlsx,None,Pictures/2487.jpg,l,0,NoHit,1,Images,,,,,,,,,,,,,,,,,,,,,,,,,,,0,0,0,0,,,,,,,,,,,,,,,,,0,110,110,110,,,,,,,,,,,,,,,,,,,,,,,None,0,[],[],,,,,B,1,2019_Jul_01_1949,PM,3.0.6,60.05889923911877,
,,,,,,PM_list_2.xlsx,PM_images_list_2.xlsx,cue words2.xlsx,cue images2.xlsx,recog_task2.xlsx,recog_task_images2.xlsx,None,Pictures/2490.jpg,l,0,NoHit,1,Images,,,,,,,,,,,,,,,,,,,,,,,,,,,0,0,0,0,,,,,,,,,,,,,,,,,0,111,111,111,,,,,,,,,,,,,,,,,,,,,,,None,0,[],[],,,,,B,1,2019_Jul_01_1949,PM,3.0.6,60.05889923911877,
,,,,,,PM_list_2.xlsx,PM_images_list_2.xlsx,cue words2.xlsx,cue images2.xlsx,recog_task2.xlsx,recog_task_images2.xlsx,None,Pictures/2332.jpg,l,0,NoHit,1,Images,,,,,,,,,,,,,,,,,,,,,,,,,,,0,0,0,0,,,,,,,,,,,,,,,,,0,112,112,112,,,,,,,,,,,,,,,,,,,,,,,None,0,[],[],,,,,B,1,2019_Jul_01_1949,PM,3.0.6,60.05889923911877,
,,,,,,PM_list_2.xlsx,PM_images_list_2.xlsx,cue words2.xlsx,cue images2.xlsx,recog_task2.xlsx,recog_task_images2.xlsx,None,Pictures/2490.jpg,d,1,Hit,1,Images,,,,,,,,,,,,,,,,,,,,,,,,,,,0,0,0,0,,,,,,,,,,,,,,,,,0,113,113,113,,,,,,,,,,,,,,,,,,,,,,,None,0,[],[],,,,,B,1,2019_Jul_01_1949,PM,3.0.6,60.05889923911877,
,,,,,,PM_list_2.xlsx,PM_images_list_2.xlsx,cue words2.xlsx,cue images2.xlsx,recog_task2.xlsx,recog_task_images2.xlsx,None,Pictures/2810.jpg,l,0,NoHit,1,Images,,,,,,,,,,,,,,,,,,,,,,,,,,,0,0,0,0,,,,,,,,,,,,,,,,,0,114,114,114,,,,,,,,,,,,,,,,,,,,,,,None,0,[],[],,,,,B,1,2019_Jul_01_1949,PM,3.0.6,60.05889923911877,
,,,,,,PM_list_2.xlsx,PM_images_list_2.xlsx,cue words2.xlsx,cue images2.xlsx,recog_task2.xlsx,recog_task_images2.xlsx,None,Pictures/8010.jpg,l,0,NoHit,1,Images,,,,,,,,,,,,,,,,,,,,,,,,,,,0,0,0,0,,,,,,,,,,,,,,,,,0,115,115,115,,,,,,,,,,,,,,,,,,,,,,,None,0,[],[],,,,,B,1,2019_Jul_01_1949,PM,3.0.6,60.05889923911877,
,,,,,,PM_list_2.xlsx,PM_images_list_2.xlsx,cue words2.xlsx,cue images2.xlsx,recog_task2.xlsx,recog_task_images2.xlsx,None,Pictures/2981.jpg,l,0,NoHit,1,Images,,,,,,,,,,,,,,,,,,,,,,,,,,,0,0,0,0,,,,,,,,,,,,,,,,,0,116,116,116,,,,,,,,,,,,,,,,,,,,,,,None,0,[],[],,,,,B,1,2019_Jul_01_1949,PM,3.0.6,60.05889923911877,
,,,,,,PM_list_2.xlsx,PM_images_list_2.xlsx,cue words2.xlsx,cue images2.xlsx,recog_task2.xlsx,recog_task_images2.xlsx,None,Pictures/4625.jpg,h,7,PosH2,2,Images,,,,,,,,,,,,,,,,,,,,,,,,,,,0,0,0,0,,,,,,,,,,,,,,,,,0,117,117,117,,,,,,,,,,,,,,,,,,,,,,,None,0,[],0,,,,,B,1,2019_Jul_01_1949,PM,3.0.6,60.05889923911877,
,,,,,,PM_list_2.xlsx,PM_images_list_2.xlsx,cue words2.xlsx,cue images2.xlsx,recog_task2.xlsx,recog_task_images2.xlsx,None,Pictures/2981.jpg,d,1,Hit,1,Images,,,,,,,,,,,,,,,,,,,,,,,,,,,0,0,0,0,,,,,,,,,,,,,,,,,0,118,118,118,,,,,,,,,,,,,,,,,,,,,,,None,0,[],[],,,,,B,1,2019_Jul_01_1949,PM,3.0.6,60.05889923911877,
,,,,,,PM_list_2.xlsx,PM_images_list_2.xlsx,cue words2.xlsx,cue images2.xlsx,recog_task2.xlsx,recog_task_images2.xlsx,None,Pictures/8490.jpg,l,0,NoHit,1,Images,,,,,,,,,,,,,,,,,,,,,,,,,,,0,0,0,0,,,,,,,,,,,,,,,,,0,119,119,119,,,,,,,,,,,,,,,,,,,,,,,None,0,[],[],,,,,B,1,2019_Jul_01_1949,PM,3.0.6,60.05889923911877,
,,,,,,PM_list_2.xlsx,PM_images_list_2.xlsx,cue words2.xlsx,cue images2.xlsx,recog_task2.xlsx,recog_task_images2.xlsx,None,Pictures/9280.jpg,l,0,NoHit,1,Images,,,,,,,,,,,,,,,,,,,,,,,,,,,0,0,0,0,,,,,,,,,,,,,,,,,0,120,120,120,,,,,,,,,,,,,,,,,,,,,,,None,0,[],[],,,,,B,1,2019_Jul_01_1949,PM,3.0.6,60.05889923911877,
,,,,,,PM_list_2.xlsx,PM_images_list_2.xlsx,cue words2.xlsx,cue images2.xlsx,recog_task2.xlsx,recog_task_images2.xlsx,None,Pictures/9006.jpg,l,0,NoHit,1,Images,,,,,,,,,,,,,,,,,,,,,,,,,,,0,0,0,0,,,,,,,,,,,,,,,,,0,121,121,121,,,,,,,,,,,,,,,,,,,,,,,None,0,[],[],,,,,B,1,2019_Jul_01_1949,PM,3.0.6,60.05889923911877,
,,,,,,PM_list_2.xlsx,PM_images_list_2.xlsx,cue words2.xlsx,cue images2.xlsx,recog_task2.xlsx,recog_task_images2.xlsx,None,Pictures/2310.jpg,l,0,NoHit,1,Images,,,,,,,,,,,,,,,,,,,,,,,,,,,0,0,0,0,,,,,,,,,,,,,,,,,0,122,122,122,,,,,,,,,,,,,,,,,,,,,,,None,0,[],[],,,,,B,1,2019_Jul_01_1949,PM,3.0.6,60.05889923911877,
,,,,,,PM_list_2.xlsx,PM_images_list_2.xlsx,cue words2.xlsx,cue images2.xlsx,recog_task2.xlsx,recog_task_images2.xlsx,None,Pictures/9006.jpg,d,1,Hit,1,Images,,,,,,,,,,,,,,,,,,,,,,,,,,,0,0,0,0,,,,,,,,,,,,,,,,,0,123,123,123,,,,,,,,,,,,,,,,,,,,,,,None,0,[],[],,,,,B,1,2019_Jul_01_1949,PM,3.0.6,60.05889923911877,
,,,,,,PM_list_2.xlsx,PM_images_list_2.xlsx,cue words2.xlsx,cue images2.xlsx,recog_task2.xlsx,recog_task_images2.xlsx,None,Pictures/1310.jpg,l,0,NoHit,1,Images,,,,,,,,,,,,,,,,,,,,,,,,,,,0,0,0,0,,,,,,,,,,,,,,,,,0,124,124,124,,,,,,,,,,,,,,,,,,,,,,,None,0,[],[],,,,,B,1,2019_Jul_01_1949,PM,3.0.6,60.05889923911877,
,,,,,,PM_list_2.xlsx,PM_images_list_2.xlsx,cue words2.xlsx,cue images2.xlsx,recog_task2.xlsx,recog_task_images2.xlsx,None,Pictures/2205.jpg,l,0,NoHit,1,Images,,,,,,,,,,,,,,,,,,,,,,,,,,,0,0,0,0,,,,,,,,,,,,,,,,,0,125,125,125,,,,,,,,,,,,,,,,,,,,,,,None,0,[],[],,,,,B,1,2019_Jul_01_1949,PM,3.0.6,60.05889923911877,
,,,,,,PM_list_2.xlsx,PM_images_list_2.xlsx,cue words2.xlsx,cue images2.xlsx,recog_task2.xlsx,recog_task_images2.xlsx,None,Pictures/6900.jpg,h,6,NeuH2,2,Images,,,,,,,,,,,,,,,,,,,,,,,,,,,0,0,0,0,,,,,,,,,,,,,,,,,0,126,126,126,,,,,,,,,,,,,,,,,,,,,,,None,0,[],0,,,,,B,1,2019_Jul_01_1949,PM,3.0.6,60.05889923911877,
,,,,,,PM_list_2.xlsx,PM_images_list_2.xlsx,cue words2.xlsx,cue images2.xlsx,recog_task2.xlsx,recog_task_images2.xlsx,None,Pictures/9075.jpg,l,0,NoHit,1,Images,,,,,,,,,,,,,,,,,,,,,,,,,,,0,0,0,0,,,,,,,,,,,,,,,,,0,127,127,127,,,,,,,,,,,,,,,,,,,,,,,None,0,[],[],,,,,B,1,2019_Jul_01_1949,PM,3.0.6,60.05889923911877,
,,,,,,PM_list_2.xlsx,PM_images_list_2.xlsx,cue words2.xlsx,cue images2.xlsx,recog_task2.xlsx,recog_task_images2.xlsx,None,Pictures/7502.jpg,l,0,NoHit,1,Images,,,,,,,,,,,,,,,,,,,,,,,,,,,0,0,0,0,,,,,,,,,,,,,,,,,0,128,128,128,,,,,,,,,,,,,,,,,,,,,,,None,0,[],[],,,,,B,1,2019_Jul_01_1949,PM,3.0.6,60.05889923911877,
,,,,,,PM_list_2.xlsx,PM_images_list_2.xlsx,cue words2.xlsx,cue images2.xlsx,recog_task2.xlsx,recog_task_images2.xlsx,None,Pictures/9075.jpg,d,1,Hit,1,Images,,,,,,,,,,,,,,,,,,,,,,,,,,,0,0,0,0,,,,,,,,,,,,,,,,,0,129,129,129,,,,,,,,,,,,,,,,,,,,,,,None,0,[],[],,,,,B,1,2019_Jul_01_1949,PM,3.0.6,60.05889923911877,
,,,,,,PM_list_2.xlsx,PM_images_list_2.xlsx,cue words2.xlsx,cue images2.xlsx,recog_task2.xlsx,recog_task_images2.xlsx,None,Pictures/2260.jpg,l,0,NoHit,1,Images,,,,,,,,,,,,,,,,,,,,,,,,,,,0,0,0,0,,,,,,,,,,,,,,,,,0,130,130,130,,,,,,,,,,,,,,,,,,,,,,,None,0,[],[],,,,,B,1,2019_Jul_01_1949,PM,3.0.6,60.05889923911877,
,,,,,,PM_list_2.xlsx,PM_images_list_2.xlsx,cue words2.xlsx,cue images2.xlsx,recog_task2.xlsx,recog_task_images2.xlsx,None,Pictures/1903.jpg,l,0,NoHit,1,Images,,,,,,,,,,,,,,,,,,,,,,,,,,,0,0,0,0,,,,,,,,,,,,,,,,,0,131,131,131,,,,,,,,,,,,,,,,,,,,,,,None,0,[],[],,,,,B,1,2019_Jul_01_1949,PM,3.0.6,60.05889923911877,
,,,,,d,PM_list_2.xlsx,PM_images_list_2.xlsx,cue words2.xlsx,cue images2.xlsx,recog_task2.xlsx,recog_task_images2.xlsx,,Pictures/3550.jpg,,,,,Images,NegH2,,,,,,,,,,,,,,,,,,,,,,,,,,0,0,0,0,,,,,,,,,,,,,,,,,,,,,0,0,0,1,,,,,,,,,,,,,,,,,,,,,,,l,0,32.21459558594506,,B,1,2019_Jul_01_1949,PM,3.0.6,60.05889923911877,
,,,,,l,PM_list_2.xlsx,PM_images_list_2.xlsx,cue words2.xlsx,cue images2.xlsx,recog_task2.xlsx,recog_task_images2.xlsx,,Pictures/5621.jpg,,,,,Images,None,,,,,,,,,,,,,,,,,,,,,,,,,,0,0,0,0,,,,,,,,,,,,,,,,,,,,,0,1,1,11,,,,,,,,,,,,,,,,,,,,,,,l,1,0.1243905967567116,,B,1,2019_Jul_01_1949,PM,3.0.6,60.05889923911877,
,,,,,l,PM_list_2.xlsx,PM_images_list_2.xlsx,cue words2.xlsx,cue images2.xlsx,recog_task2.xlsx,recog_task_images2.xlsx,,Pictures/7640.jpg,,,,,Images,None,,,,,,,,,,,,,,,,,,,,,,,,,,0,0,0,0,,,,,,,,,,,,,,,,,,,,,0,2,2,9,,,,,,,,,,,,,,,,,,,,,,,l,1,0.13377757975831628,,B,1,2019_Jul_01_1949,PM,3.0.6,60.05889923911877,
,,,,,l,PM_list_2.xlsx,PM_images_list_2.xlsx,cue words2.xlsx,cue images2.xlsx,recog_task2.xlsx,recog_task_images2.xlsx,,Pictures/9220.jpg,,,,,Images,None,,,,,,,,,,,,,,,,,,,,,,,,,,0,0,0,0,,,,,,,,,,,,,,,,,,,,,0,3,3,0,,,,,,,,,,,,,,,,,,,,,,,l,1,0.11720912659075111,,B,1,2019_Jul_01_1949,PM,3.0.6,60.05889923911877,
,,,,,d,PM_list_2.xlsx,PM_images_list_2.xlsx,cue words2.xlsx,cue images2.xlsx,recog_task2.xlsx,recog_task_images2.xlsx,,Pictures/4625.jpg,,,,,Images,PosH2,,,,,,,,,,,,,,,,,,,,,,,,,,0,0,0,0,,,,,,,,,,,,,,,,,,,,,0,4,4,2,,,,,,,,,,,,,,,,,,,,,,,l,0,0.11430266185197979,,B,1,2019_Jul_01_1949,PM,3.0.6,60.05889923911877,
,,,,,l,PM_list_2.xlsx,PM_images_list_2.xlsx,cue words2.xlsx,cue images2.xlsx,recog_task2.xlsx,recog_task_images2.xlsx,,Pictures/1500.jpg,,,,,Images,None,,,,,,,,,,,,,,,,,,,,,,,,,,0,0,0,0,,,,,,,,,,,,,,,,,,,,,0,5,5,5,,,,,,,,,,,,,,,,,,,,,,,l,1,0.12391933880280703,,B,1,2019_Jul_01_1949,PM,3.0.6,60.05889923911877,
,,,,,d,PM_list_2.xlsx,PM_images_list_2.xlsx,cue words2.xlsx,cue images2.xlsx,recog_task2.xlsx,recog_task_images2.xlsx,,Pictures/5594.jpg,,,,,Images,PosL2,,,,,,,,,,,,,,,,,,,,,,,,,,0,0,0,0,,,,,,,,,,,,,,,,,,,,,0,6,6,4,,,,,,,,,,,,,,,,,,,,,,,l,0,0.11705353762954473,,B,1,2019_Jul_01_1949,PM,3.0.6,60.05889923911877,
,,,,,l,PM_list_2.xlsx,PM_images_list_2.xlsx,cue words2.xlsx,cue images2.xlsx,recog_task2.xlsx,recog_task_images2.xlsx,,Pictures/2400.jpg,,,,,Images,None,,,,,,,,,,,,,,,,,,,,,,,,,,0,0,0,0,,,,,,,,,,,,,,,,,,,,,0,7,7,3,,,,,,,,,,,,,,,,,,,,,,,l,1,0.13046401739120483,,B,1,2019_Jul_01_1949,PM,3.0.6,60.05889923911877,
,,,,,l,PM_list_2.xlsx,PM_images_list_2.xlsx,cue words2.xlsx,cue images2.xlsx,recog_task2.xlsx,recog_task_images2.xlsx,,Pictures/6530.jpg,,,,,Images,None,,,,,,,,,,,,,,,,,,,,,,,,,,0,0,0,0,,,,,,,,,,,,,,,,,,,,,0,8,8,6,,,,,,,,,,,,,,,,,,,,,,,l,1,0.13378271250985563,,B,1,2019_Jul_01_1949,PM,3.0.6,60.05889923911877,
,,,,,d,PM_list_2.xlsx,PM_images_list_2.xlsx,cue words2.xlsx,cue images2.xlsx,recog_task2.xlsx,recog_task_images2.xlsx,,Pictures/2722.jpg,,,,,Images,NegL2,,,,,,,,,,,,,,,,,,,,,,,,,,0,0,0,0,,,,,,,,,,,,,,,,,,,,,0,9,9,7,,,,,,,,,,,,,,,,,,,,,,,l,0,0.13190088886767626,,B,1,2019_Jul_01_1949,PM,3.0.6,60.05889923911877,
,,,,,d,PM_list_2.xlsx,PM_images_list_2.xlsx,cue words2.xlsx,cue images2.xlsx,recog_task2.xlsx,recog_task_images2.xlsx,,Pictures/2230.jpg,,,,,Images,NeuL2,,,,,,,,,,,,,,,,,,,,,,,,,,0,0,0,0,,,,,,,,,,,,,,,,,,,,,0,10,10,10,,,,,,,,,,,,,,,,,,,,,,,l,0,0.12534594465978444,,B,1,2019_Jul_01_1949,PM,3.0.6,60.05889923911877,
,,,,,d,PM_list_2.xlsx,PM_images_list_2.xlsx,cue words2.xlsx,cue images2.xlsx,recog_task2.xlsx,recog_task_images2.xlsx,,Pictures/6900.jpg,,,,,Images,NeuH2,,,,,,,,,,,,,,,,,,,,,,,,,,0,0,0,0,,,,,,,,,,,,,,,,,,,,,0,11,11,8,,,,,,,,,,,,,,,,,,,,,,,l,0,0.16234338050708175,,B,1,2019_Jul_01_1949,PM,3.0.6,60.05889923911877,
,,,,,,PM_list_1.xlsx,PM_images_list_1.xlsx,cue words.xlsx,cue images.xlsx,recog_task.xlsx,recog_task_images1.xlsx,Pictures/2151.jpg,,,,,,,,,,,,,,,,,,,,,,,,,,,,,,,,,0,1,1,1,0,0,0,2,,,,,,,,,,,,,,,,,,,,,,,,,,,,,,,,,,,,,,,,,,,,,,,B,1,2019_Jul_01_1949,PM,3.0.6,60.05889923911877,
,,,,,,PM_list_1.xlsx,PM_images_list_1.xlsx,cue words.xlsx,cue images.xlsx,recog_task.xlsx,recog_task_images1.xlsx,Pictures/7405.jpg,,,,,,,,,,,,,,,,,,,,,,,,,,,,,,,,,0,1,1,1,0,1,1,1,,,,,,,,,,,,,,,,,,,,,,,,,,,,,,,,,,,,,,,,,,,,,,,B,1,2019_Jul_01_1949,PM,3.0.6,60.05889923911877,
,,,,,,PM_list_1.xlsx,PM_images_list_1.xlsx,cue words.xlsx,cue images.xlsx,recog_task.xlsx,recog_task_images1.xlsx,Pictures/8192.jpg,,,,,,,,,,,,,,,,,,,,,,,,,,,,,,,,,0,1,1,1,0,2,2,3,,,,,,,,,,,,,,,,,,,,,,,,,,,,,,,,,,,,,,,,,,,,,,,B,1,2019_Jul_01_1949,PM,3.0.6,60.05889923911877,
,,,,,,PM_list_1.xlsx,PM_images_list_1.xlsx,cue words.xlsx,cue images.xlsx,recog_task.xlsx,recog_task_images1.xlsx,Pictures/7042.jpg,,,,,,,,,,,,,,,,,,,,,,,,,,,,,,,,,0,1,1,1,0,3,3,0,,,,,,,,,,,,,,,,,,,,,,,,,,,,,,,,,,,,,,,,,,,,,,,B,1,2019_Jul_01_1949,PM,3.0.6,60.05889923911877,
,,,,,,PM_list_1.xlsx,PM_images_list_1.xlsx,cue words.xlsx,cue images.xlsx,recog_task.xlsx,recog_task_images1.xlsx,Pictures/9909.jpg,,,,,,,,,,,,,,,,,,,,,,,,,,,,,,,,,0,1,1,1,0,4,4,5,,,,,,,,,,,,,,,,,,,,,,,,,,,,,,,,,,,,,,,,,,,,,,,B,1,2019_Jul_01_1949,PM,3.0.6,60.05889923911877,
,,,,,,PM_list_1.xlsx,PM_images_list_1.xlsx,cue words.xlsx,cue images.xlsx,recog_task.xlsx,recog_task_images1.xlsx,Pictures/2301.jpg,,,,,,,,,,,,,,,,,,,,,,,,,,,,,,,,,0,1,1,1,0,5,5,4,,,,,,,,,,,,,,,,,,,,,,,,,,,,,,,,,,,,,,,,,,,,,,,B,1,2019_Jul_01_1949,PM,3.0.6,60.05889923911877,
,,,,,,PM_list_1.xlsx,PM_images_list_1.xlsx,cue words.xlsx,cue images.xlsx,recog_task.xlsx,recog_task_images1.xlsx,Pictures/2151.jpg,,,,,,,,,,,,,,,,,,,,,,,,,,,,,,,,,0,1,1,1,,,,,0,0,0,2,,,,,,,,,,,,,,,,,,,,,,,,,,,,,,,,,,,,,,,,,,,B,1,2019_Jul_01_1949,PM,3.0.6,60.05889923911877,
,,,,,,PM_list_1.xlsx,PM_images_list_1.xlsx,cue words.xlsx,cue images.xlsx,recog_task.xlsx,recog_task_images1.xlsx,Pictures/9909.jpg,,,,,,,,,,,,,,,,,,,,,,,,,,,,,,,,,0,1,1,1,,,,,0,1,1,5,,,,,,,,,,,,,,,,,,,,,,,,,,,,,,,,,,,,,,,,,,,B,1,2019_Jul_01_1949,PM,3.0.6,60.05889923911877,
,,,,,,PM_list_1.xlsx,PM_images_list_1.xlsx,cue words.xlsx,cue images.xlsx,recog_task.xlsx,recog_task_images1.xlsx,Pictures/8192.jpg,,,,,,,,,,,,,,,,,,,,,,,,,,,,,,,,,0,1,1,1,,,,,0,2,2,3,,,,,,,,,,,,,,,,,,,,,,,,,,,,,,,,,,,,,,,,,,,B,1,2019_Jul_01_1949,PM,3.0.6,60.05889923911877,
,,,,,,PM_list_1.xlsx,PM_images_list_1.xlsx,cue words.xlsx,cue images.xlsx,recog_task.xlsx,recog_task_images1.xlsx,Pictures/7405.jpg,,,,,,,,,,,,,,,,,,,,,,,,,,,,,,,,,0,1,1,1,,,,,0,3,3,1,,,,,,,,,,,,,,,,,,,,,,,,,,,,,,,,,,,,,,,,,,,B,1,2019_Jul_01_1949,PM,3.0.6,60.05889923911877,
,,,,,,PM_list_1.xlsx,PM_images_list_1.xlsx,cue words.xlsx,cue images.xlsx,recog_task.xlsx,recog_task_images1.xlsx,Pictures/7042.jpg,,,,,,,,,,,,,,,,,,,,,,,,,,,,,,,,,0,1,1,1,,,,,0,4,4,0,,,,,,,,,,,,,,,,,,,,,,,,,,,,,,,,,,,,,,,,,,,B,1,2019_Jul_01_1949,PM,3.0.6,60.05889923911877,
,,,,,,PM_list_1.xlsx,PM_images_list_1.xlsx,cue words.xlsx,cue images.xlsx,recog_task.xlsx,recog_task_images1.xlsx,Pictures/2301.jpg,,,,,,,,,,,,,,,,,,,,,,,,,,,,,,,,,0,1,1,1,,,,,0,5,5,4,,,,,,,,,,,,,,,,,,,,,,,,,,,,,,,,,,,,,,,,,,,B,1,2019_Jul_01_1949,PM,3.0.6,60.05889923911877,
,,,,,,PM_list_1.xlsx,PM_images_list_1.xlsx,cue words.xlsx,cue images.xlsx,recog_task.xlsx,recog_task_images1.xlsx,,,,,,,,,,,,,,,,,,,,,,,,,,,,,,,,,,0,1,1,1,,,,,,,,,0,0,0,0,,,,,,,,,,,,,,,,,,,,,,,,,,,,,,,,,,,,,,,B,1,2019_Jul_01_1949,PM,3.0.6,60.05889923911877,
,,,,,,PM_list_1.xlsx,PM_images_list_1.xlsx,cue words.xlsx,cue images.xlsx,recog_task.xlsx,recog_task_images1.xlsx,,Pictures/1101.jpg,l,0,NoHit,1,Images,,,,,,,,,,,,,,,,,,,,,,,,,,,0,1,1,1,,,,,,,,,,,,,,,,,0,0,0,0,,,,,,,,,,,,,,,,,,,,,,,None,0,[],[],,,,,B,1,2019_Jul_01_1949,PM,3.0.6,60.05889923911877,
,,,,,,PM_list_1.xlsx,PM_images_list_1.xlsx,cue words.xlsx,cue images.xlsx,recog_task.xlsx,recog_task_images1.xlsx,,Pictures/7054.jpg,l,0,NoHit,1,Images,,,,,,,,,,,,,,,,,,,,,,,,,,,0,1,1,1,,,,,,,,,,,,,,,,,0,1,1,1,,,,,,,,,,,,,,,,,,,,,,,None,0,[],[],,,,,B,1,2019_Jul_01_1949,PM,3.0.6,60.05889923911877,
,,,,,,PM_list_1.xlsx,PM_images_list_1.xlsx,cue words.xlsx,cue images.xlsx,recog_task.xlsx,recog_task_images1.xlsx,,Pictures/1022.jpg,l,0,NoHit,1,Images,,,,,,,,,,,,,,,,,,,,,,,,,,,0,1,1,1,,,,,,,,,,,,,,,,,0,2,2,2,,,,,,,,,,,,,,,,,,,,,,,None,0,[],[],,,,,B,1,2019_Jul_01_1949,PM,3.0.6,60.05889923911877,
,,,,,,PM_list_1.xlsx,PM_images_list_1.xlsx,cue words.xlsx,cue images.xlsx,recog_task.xlsx,recog_task_images1.xlsx,,Pictures/7054.jpg,d,1,Hit,1,Images,,,,,,,,,,,,,,,,,,,,,,,,,,,0,1,1,1,,,,,,,,,,,,,,,,,0,3,3,3,,,,,,,,,,,,,,,,,,,,,,,None,0,[],[],,,,,B,1,2019_Jul_01_1949,PM,3.0.6,60.05889923911877,
,,,,,,PM_list_1.xlsx,PM_images_list_1.xlsx,cue words.xlsx,cue images.xlsx,recog_task.xlsx,recog_task_images1.xlsx,,Pictures/1750.jpg,l,0,NoHit,1,Images,,,,,,,,,,,,,,,,,,,,,,,,,,,0,1,1,1,,,,,,,,,,,,,,,,,0,4,4,4,,,,,,,,,,,,,,,,,,,,,,,None,0,[],[],,,,,B,1,2019_Jul_01_1949,PM,3.0.6,60.05889923911877,
,,,,,,PM_list_1.xlsx,PM_images_list_1.xlsx,cue words.xlsx,cue images.xlsx,recog_task.xlsx,recog_task_images1.xlsx,,Pictures/2720.jpg,l,0,NoHit,1,Images,,,,,,,,,,,,,,,,,,,,,,,,,,,0,1,1,1,,,,,,,,,,,,,,,,,0,5,5,5,,,,,,,,,,,,,,,,,,,,,,,None,0,[],[],,,,,B,1,2019_Jul_01_1949,PM,3.0.6,60.05889923911877,
,,,,,,PM_list_1.xlsx,PM_images_list_1.xlsx,cue words.xlsx,cue images.xlsx,recog_task.xlsx,recog_task_images1.xlsx,,Pictures/1750.jpg,d,1,Hit,1,Images,,,,,,,,,,,,,,,,,,,,,,,,,,,0,1,1,1,,,,,,,,,,,,,,,,,0,6,6,6,,,,,,,,,,,,,,,,,,,,,,,None,0,[],[],,,,,B,1,2019_Jul_01_1949,PM,3.0.6,60.05889923911877,
,,,,,,PM_list_1.xlsx,PM_images_list_1.xlsx,cue words.xlsx,cue images.xlsx,recog_task.xlsx,recog_task_images1.xlsx,,Pictures/4622.jpg,l,0,NoHit,1,Images,,,,,,,,,,,,,,,,,,,,,,,,,,,0,1,1,1,,,,,,,,,,,,,,,,,0,7,7,7,,,,,,,,,,,,,,,,,,,,,,,None,0,[],[],,,,,B,1,2019_Jul_01_1949,PM,3.0.6,60.05889923911877,
,,,,,,PM_list_1.xlsx,PM_images_list_1.xlsx,cue words.xlsx,cue images.xlsx,recog_task.xlsx,recog_task_images1.xlsx,,Pictures/8065.jpg,l,0,NoHit,1,Images,,,,,,,,,,,,,,,,,,,,,,,,,,,0,1,1,1,,,,,,,,,,,,,,,,,0,8,8,8,,,,,,,,,,,,,,,,,,,,,,,None,0,[],[],,,,,B,1,2019_Jul_01_1949,PM,3.0.6,60.05889923911877,
,,,,,,PM_list_1.xlsx,PM_images_list_1.xlsx,cue words.xlsx,cue images.xlsx,recog_task.xlsx,recog_task_images1.xlsx,,Pictures/4622.jpg,d,1,Hit,1,Images,,,,,,,,,,,,,,,,,,,,,,,,,,,0,1,1,1,,,,,,,,,,,,,,,,,0,9,9,9,,,,,,,,,,,,,,,,,,,,,,,None,0,[],[],,,,,B,1,2019_Jul_01_1949,PM,3.0.6,60.05889923911877,
,,,,,,PM_list_1.xlsx,PM_images_list_1.xlsx,cue words.xlsx,cue images.xlsx,recog_task.xlsx,recog_task_images1.xlsx,,Pictures/7042.jpg,h,3,NeuL1,1,Images,,,,,,,,,,,,,,,,,,,,,,,,,,,0,1,1,1,,,,,,,,,,,,,,,,,0,10,10,10,,,,,,,,,,,,,,,,,,,,,,,None,0,[],0,,,,,B,1,2019_Jul_01_1949,PM,3.0.6,60.05889923911877,
,,,,,,PM_list_1.xlsx,PM_images_list_1.xlsx,cue words.xlsx,cue images.xlsx,recog_task.xlsx,recog_task_images1.xlsx,,Pictures/2520.jpg,l,0,NoHit,1,Images,,,,,,,,,,,,,,,,,,,,,,,,,,,0,1,1,1,,,,,,,,,,,,,,,,,0,11,11,11,,,,,,,,,,,,,,,,,,,,,,,None,0,[],[],,,,,B,1,2019_Jul_01_1949,PM,3.0.6,60.05889923911877,
,,,,,,PM_list_1.xlsx,PM_images_list_1.xlsx,cue words.xlsx,cue images.xlsx,recog_task.xlsx,recog_task_images1.xlsx,,Pictures/4599.jpg,l,0,NoHit,1,Images,,,,,,,,,,,,,,,,,,,,,,,,,,,0,1,1,1,,,,,,,,,,,,,,,,,0,12,12,12,,,,,,,,,,,,,,,,,,,,,,,None,0,[],[],,,,,B,1,2019_Jul_01_1949,PM,3.0.6,60.05889923911877,
,,,,,,PM_list_1.xlsx,PM_images_list_1.xlsx,cue words.xlsx,cue images.xlsx,recog_task.xlsx,recog_task_images1.xlsx,,Pictures/6910.jpg,l,0,NoHit,1,Images,,,,,,,,,,,,,,,,,,,,,,,,,,,0,1,1,1,,,,,,,,,,,,,,,,,0,13,13,13,,,,,,,,,,,,,,,,,,,,,,,None,0,[],[],,,,,B,1,2019_Jul_01_1949,PM,3.0.6,60.05889923911877,
,,,,,,PM_list_1.xlsx,PM_images_list_1.xlsx,cue words.xlsx,cue images.xlsx,recog_task.xlsx,recog_task_images1.xlsx,,Pictures/4599.jpg,d,1,Hit,1,Images,,,,,,,,,,,,,,,,,,,,,,,,,,,0,1,1,1,,,,,,,,,,,,,,,,,0,14,14,14,,,,,,,,,,,,,,,,,,,,,,,None,0,[],[],,,,,B,1,2019_Jul_01_1949,PM,3.0.6,60.05889923911877,
,,,,,,PM_list_1.xlsx,PM_images_list_1.xlsx,cue words.xlsx,cue images.xlsx,recog_task.xlsx,recog_task_images1.xlsx,,Pictures/9041.jpg,l,0,NoHit,1,Images,,,,,,,,,,,,,,,,,,,,,,,,,,,0,1,1,1,,,,,,,,,,,,,,,,,0,15,15,15,,,,,,,,,,,,,,,,,,,,,,,None,0,[],[],,,,,B,1,2019_Jul_01_1949,PM,3.0.6,60.05889923911877,
,,,,,,PM_list_1.xlsx,PM_images_list_1.xlsx,cue words.xlsx,cue images.xlsx,recog_task.xlsx,recog_task_images1.xlsx,,Pictures/2750.jpg,l,0,NoHit,1,Images,,,,,,,,,,,,,,,,,,,,,,,,,,,0,1,1,1,,,,,,,,,,,,,,,,,0,16,16,16,,,,,,,,,,,,,,,,,,,,,,,None,0,[],[],,,,,B,1,2019_Jul_01_1949,PM,3.0.6,60.05889923911877,
,,,,,,PM_list_1.xlsx,PM_images_list_1.xlsx,cue words.xlsx,cue images.xlsx,recog_task.xlsx,recog_task_images1.xlsx,,Pictures/9041.jpg,d,1,Hit,1,Images,,,,,,,,,,,,,,,,,,,,,,,,,,,0,1,1,1,,,,,,,,,,,,,,,,,0,17,17,17,,,,,,,,,,,,,,,,,,,,,,,None,0,[],[],,,,,B,1,2019_Jul_01_1949,PM,3.0.6,60.05889923911877,
,,,,,,PM_list_1.xlsx,PM_images_list_1.xlsx,cue words.xlsx,cue images.xlsx,recog_task.xlsx,recog_task_images1.xlsx,,Pictures/9342.jpg,l,0,NoHit,1,Images,,,,,,,,,,,,,,,,,,,,,,,,,,,0,1,1,1,,,,,,,,,,,,,,,,,0,18,18,18,,,,,,,,,,,,,,,,,,,,,,,None,0,[],[],,,,,B,1,2019_Jul_01_1949,PM,3.0.6,60.05889923911877,
,,,,,,PM_list_1.xlsx,PM_images_list_1.xlsx,cue words.xlsx,cue images.xlsx,recog_task.xlsx,recog_task_images1.xlsx,,Pictures/6021.jpg,l,0,NoHit,1,Images,,,,,,,,,,,,,,,,,,,,,,,,,,,0,1,1,1,,,,,,,,,,,,,,,,,0,19,19,19,,,,,,,,,,,,,,,,,,,,,,,None,0,[],[],,,,,B,1,2019_Jul_01_1949,PM,3.0.6,60.05889923911877,
,,,,,,PM_list_1.xlsx,PM_images_list_1.xlsx,cue words.xlsx,cue images.xlsx,recog_task.xlsx,recog_task_images1.xlsx,,Pictures/2331.jpg,l,0,NoHit,1,Images,,,,,,,,,,,,,,,,,,,,,,,,,,,0,1,1,1,,,,,,,,,,,,,,,,,0,20,20,20,,,,,,,,,,,,,,,,,,,,,,,None,0,[],[],,,,,B,1,2019_Jul_01_1949,PM,3.0.6,60.05889923911877,
,,,,,,PM_list_1.xlsx,PM_images_list_1.xlsx,cue words.xlsx,cue images.xlsx,recog_task.xlsx,recog_task_images1.xlsx,,Pictures/7405.jpg,h,7,PosH1,1,Images,,,,,,,,,,,,,,,,,,,,,,,,,,,0,1,1,1,,,,,,,,,,,,,,,,,0,21,21,21,,,,,,,,,,,,,,,,,,,,,,,None,0,[],0,,,,,B,1,2019_Jul_01_1949,PM,3.0.6,60.05889923911877,
,,,,,,PM_list_1.xlsx,PM_images_list_1.xlsx,cue words.xlsx,cue images.xlsx,recog_task.xlsx,recog_task_images1.xlsx,,Pictures/2331.jpg,d,1,Hit,1,Images,,,,,,,,,,,,,,,,,,,,,,,,,,,0,1,1,1,,,,,,,,,,,,,,,,,0,22,22,22,,,,,,,,,,,,,,,,,,,,,,,None,0,[],[],,,,,B,1,2019_Jul_01_1949,PM,3.0.6,60.05889923911877,
,,,,,,PM_list_1.xlsx,PM_images_list_1.xlsx,cue words.xlsx,cue images.xlsx,recog_task.xlsx,recog_task_images1.xlsx,,Pictures/2309.jpg,l,0,NoHit,1,Images,,,,,,,,,,,,,,,,,,,,,,,,,,,0,1,1,1,,,,,,,,,,,,,,,,,0,23,23,23,,,,,,,,,,,,,,,,,,,,,,,None,0,[],[],,,,,B,1,2019_Jul_01_1949,PM,3.0.6,60.05889923911877,
,,,,,,PM_list_1.xlsx,PM_images_list_1.xlsx,cue words.xlsx,cue images.xlsx,recog_task.xlsx,recog_task_images1.xlsx,,Pictures/1460.jpg,l,0,NoHit,1,Images,,,,,,,,,,,,,,,,,,,,,,,,,,,0,1,1,1,,,,,,,,,,,,,,,,,0,24,24,24,,,,,,,,,,,,,,,,,,,,,,,None,0,[],[],,,,,B,1,2019_Jul_01_1949,PM,3.0.6,60.05889923911877,
,,,,,,PM_list_1.xlsx,PM_images_list_1.xlsx,cue words.xlsx,cue images.xlsx,recog_task.xlsx,recog_task_images1.xlsx,,Pictures/3103.jpg,l,0,NoHit,1,Images,,,,,,,,,,,,,,,,,,,,,,,,,,,0,1,1,1,,,,,,,,,,,,,,,,,0,25,25,25,,,,,,,,,,,,,,,,,,,,,,,None,0,[],[],,,,,B,1,2019_Jul_01_1949,PM,3.0.6,60.05889923911877,
,,,,,,PM_list_1.xlsx,PM_images_list_1.xlsx,cue words.xlsx,cue images.xlsx,recog_task.xlsx,recog_task_images1.xlsx,,Pictures/1460.jpg,d,1,Hit,1,Images,,,,,,,,,,,,,,,,,,,,,,,,,,,0,1,1,1,,,,,,,,,,,,,,,,,0,26,26,26,,,,,,,,,,,,,,,,,,,,,,,None,0,[],[],,,,,B,1,2019_Jul_01_1949,PM,3.0.6,60.05889923911877,
,,,,,,PM_list_1.xlsx,PM_images_list_1.xlsx,cue words.xlsx,cue images.xlsx,recog_task.xlsx,recog_task_images1.xlsx,,Pictures/8090.jpg,l,0,NoHit,1,Images,,,,,,,,,,,,,,,,,,,,,,,,,,,0,1,1,1,,,,,,,,,,,,,,,,,0,27,27,27,,,,,,,,,,,,,,,,,,,,,,,None,0,[],[],,,,,B,1,2019_Jul_01_1949,PM,3.0.6,60.05889923911877,
,,,,,,PM_list_1.xlsx,PM_images_list_1.xlsx,cue words.xlsx,cue images.xlsx,recog_task.xlsx,recog_task_images1.xlsx,,Pictures/3302.jpg,l,0,NoHit,1,Images,,,,,,,,,,,,,,,,,,,,,,,,,,,0,1,1,1,,,,,,,,,,,,,,,,,0,28,28,28,,,,,,,,,,,,,,,,,,,,,,,None,0,[],[],,,,,B,1,2019_Jul_01_1949,PM,3.0.6,60.05889923911877,
,,,,,,PM_list_1.xlsx,PM_images_list_1.xlsx,cue words.xlsx,cue images.xlsx,recog_task.xlsx,recog_task_images1.xlsx,,Pictures/2650.jpg,l,0,NoHit,1,Images,,,,,,,,,,,,,,,,,,,,,,,,,,,0,1,1,1,,,,,,,,,,,,,,,,,0,29,29,29,,,,,,,,,,,,,,,,,,,,,,,None,0,[],[],,,,,B,1,2019_Jul_01_1949,PM,3.0.6,60.05889923911877,
,,,,,,PM_list_1.xlsx,PM_images_list_1.xlsx,cue words.xlsx,cue images.xlsx,recog_task.xlsx,recog_task_images1.xlsx,,Pictures/3302.jpg,d,1,Hit,1,Images,,,,,,,,,,,,,,,,,,,,,,,,,,,0,1,1,1,,,,,,,,,,,,,,,,,0,30,30,30,,,,,,,,,,,,,,,,,,,,,,,None,0,[],[],,,,,B,1,2019_Jul_01_1949,PM,3.0.6,60.05889923911877,
,,,,,,PM_list_1.xlsx,PM_images_list_1.xlsx,cue words.xlsx,cue images.xlsx,recog_task.xlsx,recog_task_images1.xlsx,,Pictures/2151.jpg,h,4,PosL1,1,Images,,,,,,,,,,,,,,,,,,,,,,,,,,,0,1,1,1,,,,,,,,,,,,,,,,,0,31,31,31,,,,,,,,,,,,,,,,,,,,,,,None,0,[],0,,,,,B,1,2019_Jul_01_1949,PM,3.0.6,60.05889923911877,
,,,,,,PM_list_1.xlsx,PM_images_list_1.xlsx,cue words.xlsx,cue images.xlsx,recog_task.xlsx,recog_task_images1.xlsx,,Pictures/2222.jpg,l,0,NoHit,1,Images,,,,,,,,,,,,,,,,,,,,,,,,,,,0,1,1,1,,,,,,,,,,,,,,,,,0,32,32,32,,,,,,,,,,,,,,,,,,,,,,,None,0,[],[],,,,,B,1,2019_Jul_01_1949,PM,3.0.6,60.05889923911877,
,,,,,,PM_list_1.xlsx,PM_images_list_1.xlsx,cue words.xlsx,cue images.xlsx,recog_task.xlsx,recog_task_images1.xlsx,,Pictures/8185.jpg,l,0,NoHit,1,Images,,,,,,,,,,,,,,,,,,,,,,,,,,,0,1,1,1,,,,,,,,,,,,,,,,,0,33,33,33,,,,,,,,,,,,,,,,,,,,,,,None,0,[],[],,,,,B,1,2019_Jul_01_1949,PM,3.0.6,60.05889923911877,
,,,,,,PM_list_1.xlsx,PM_images_list_1.xlsx,cue words.xlsx,cue images.xlsx,recog_task.xlsx,recog_task_images1.xlsx,,Pictures/1303.jpg,l,0,NoHit,1,Images,,,,,,,,,,,,,,,,,,,,,,,,,,,0,1,1,1,,,,,,,,,,,,,,,,,0,34,34,34,,,,,,,,,,,,,,,,,,,,,,,None,0,[],[],,,,,B,1,2019_Jul_01_1949,PM,3.0.6,60.05889923911877,
,,,,,,PM_list_1.xlsx,PM_images_list_1.xlsx,cue words.xlsx,cue images.xlsx,recog_task.xlsx,recog_task_images1.xlsx,,Pictures/8185.jpg,d,1,Hit,1,Images,,,,,,,,,,,,,,,,,,,,,,,,,,,0,1,1,1,,,,,,,,,,,,,,,,,0,35,35,35,,,,,,,,,,,,,,,,,,,,,,,None,0,[],[],,,,,B,1,2019_Jul_01_1949,PM,3.0.6,60.05889923911877,
,,,,,,PM_list_1.xlsx,PM_images_list_1.xlsx,cue words.xlsx,cue images.xlsx,recog_task.xlsx,recog_task_images1.xlsx,,Pictures/9911.jpg,l,0,NoHit,1,Images,,,,,,,,,,,,,,,,,,,,,,,,,,,0,1,1,1,,,,,,,,,,,,,,,,,0,36,36,36,,,,,,,,,,,,,,,,,,,,,,,None,0,[],[],,,,,B,1,2019_Jul_01_1949,PM,3.0.6,60.05889923911877,
,,,,,,PM_list_1.xlsx,PM_images_list_1.xlsx,cue words.xlsx,cue images.xlsx,recog_task.xlsx,recog_task_images1.xlsx,,Pictures/2688.jpg,l,0,NoHit,1,Images,,,,,,,,,,,,,,,,,,,,,,,,,,,0,1,1,1,,,,,,,,,,,,,,,,,0,37,37,37,,,,,,,,,,,,,,,,,,,,,,,None,0,[],[],,,,,B,1,2019_Jul_01_1949,PM,3.0.6,60.05889923911877,
,,,,,,PM_list_1.xlsx,PM_images_list_1.xlsx,cue words.xlsx,cue images.xlsx,recog_task.xlsx,recog_task_images1.xlsx,,Pictures/8496.jpg,l,0,NoHit,1,Images,,,,,,,,,,,,,,,,,,,,,,,,,,,0,1,1,1,,,,,,,,,,,,,,,,,0,38,38,38,,,,,,,,,,,,,,,,,,,,,,,None,0,[],[],,,,,B,1,2019_Jul_01_1949,PM,3.0.6,60.05889923911877,
,,,,,,PM_list_1.xlsx,PM_images_list_1.xlsx,cue words.xlsx,cue images.xlsx,recog_task.xlsx,recog_task_images1.xlsx,,Pictures/5833.jpg,l,0,NoHit,1,Images,,,,,,,,,,,,,,,,,,,,,,,,,,,0,1,1,1,,,,,,,,,,,,,,,,,0,39,39,39,,,,,,,,,,,,,,,,,,,,,,,None,0,[],[],,,,,B,1,2019_Jul_01_1949,PM,3.0.6,60.05889923911877,
,,,,,,PM_list_1.xlsx,PM_images_list_1.xlsx,cue words.xlsx,cue images.xlsx,recog_task.xlsx,recog_task_images1.xlsx,,Pictures/8496.jpg,d,1,Hit,1,Images,,,,,,,,,,,,,,,,,,,,,,,,,,,0,1,1,1,,,,,,,,,,,,,,,,,0,40,40,40,,,,,,,,,,,,,,,,,,,,,,,None,0,[],[],,,,,B,1,2019_Jul_01_1949,PM,3.0.6,60.05889923911877,
,,,,,,PM_list_1.xlsx,PM_images_list_1.xlsx,cue words.xlsx,cue images.xlsx,recog_task.xlsx,recog_task_images1.xlsx,,Pictures/2341.jpg,l,0,NoHit,1,Images,,,,,,,,,,,,,,,,,,,,,,,,,,,0,1,1,1,,,,,,,,,,,,,,,,,0,41,41,41,,,,,,,,,,,,,,,,,,,,,,,None,0,[],[],,,,,B,1,2019_Jul_01_1949,PM,3.0.6,60.05889923911877,
,,,,,,PM_list_1.xlsx,PM_images_list_1.xlsx,cue words.xlsx,cue images.xlsx,recog_task.xlsx,recog_task_images1.xlsx,,Pictures/9909.jpg,h,5,NegH1,1,Images,,,,,,,,,,,,,,,,,,,,,,,,,,,0,1,1,1,,,,,,,,,,,,,,,,,0,42,42,42,,,,,,,,,,,,,,,,,,,,,,,None,0,[],0,,,,,B,1,2019_Jul_01_1949,PM,3.0.6,60.05889923911877,
,,,,,,PM_list_1.xlsx,PM_images_list_1.xlsx,cue words.xlsx,cue images.xlsx,recog_task.xlsx,recog_task_images1.xlsx,,Pictures/9001.jpg,l,0,NoHit,1,Images,,,,,,,,,,,,,,,,,,,,,,,,,,,0,1,1,1,,,,,,,,,,,,,,,,,0,43,43,43,,,,,,,,,,,,,,,,,,,,,,,None,0,[],[],,,,,B,1,2019_Jul_01_1949,PM,3.0.6,60.05889923911877,
,,,,,,PM_list_1.xlsx,PM_images_list_1.xlsx,cue words.xlsx,cue images.xlsx,recog_task.xlsx,recog_task_images1.xlsx,,Pictures/9832.jpg,l,0,NoHit,1,Images,,,,,,,,,,,,,,,,,,,,,,,,,,,0,1,1,1,,,,,,,,,,,,,,,,,0,44,44,44,,,,,,,,,,,,,,,,,,,,,,,None,0,[],[],,,,,B,1,2019_Jul_01_1949,PM,3.0.6,60.05889923911877,
,,,,,,PM_list_1.xlsx,PM_images_list_1.xlsx,cue words.xlsx,cue images.xlsx,recog_task.xlsx,recog_task_images1.xlsx,,Pictures/9001.jpg,d,1,Hit,1,Images,,,,,,,,,,,,,,,,,,,,,,,,,,,0,1,1,1,,,,,,,,,,,,,,,,,0,45,45,45,,,,,,,,,,,,,,,,,,,,,,,None,0,[],[],,,,,B,1,2019_Jul_01_1949,PM,3.0.6,60.05889923911877,
,,,,,,PM_list_1.xlsx,PM_images_list_1.xlsx,cue words.xlsx,cue images.xlsx,recog_task.xlsx,recog_task_images1.xlsx,,Pictures/2750.jpg,l,0,NoHit,1,Images,,,,,,,,,,,,,,,,,,,,,,,,,,,0,1,1,1,,,,,,,,,,,,,,,,,0,46,46,46,,,,,,,,,,,,,,,,,,,,,,,None,0,[],[],,,,,B,1,2019_Jul_01_1949,PM,3.0.6,60.05889923911877,
,,,,,,PM_list_1.xlsx,PM_images_list_1.xlsx,cue words.xlsx,cue images.xlsx,recog_task.xlsx,recog_task_images1.xlsx,,Pictures/8480.jpg,l,0,NoHit,1,Images,,,,,,,,,,,,,,,,,,,,,,,,,,,0,1,1,1,,,,,,,,,,,,,,,,,0,47,47,47,,,,,,,,,,,,,,,,,,,,,,,None,0,[],[],,,,,B,1,2019_Jul_01_1949,PM,3.0.6,60.05889923911877,
,,,,,,PM_list_1.xlsx,PM_images_list_1.xlsx,cue words.xlsx,cue images.xlsx,recog_task.xlsx,recog_task_images1.xlsx,,Pictures/7830.jpg,l,0,NoHit,1,Images,,,,,,,,,,,,,,,,,,,,,,,,,,,0,1,1,1,,,,,,,,,,,,,,,,,0,48,48,48,,,,,,,,,,,,,,,,,,,,,,,None,0,[],[],,,,,B,1,2019_Jul_01_1949,PM,3.0.6,60.05889923911877,
,,,,,,PM_list_1.xlsx,PM_images_list_1.xlsx,cue words.xlsx,cue images.xlsx,recog_task.xlsx,recog_task_images1.xlsx,,Pictures/8480.jpg,d,1,Hit,1,Images,,,,,,,,,,,,,,,,,,,,,,,,,,,0,1,1,1,,,,,,,,,,,,,,,,,0,49,49,49,,,,,,,,,,,,,,,,,,,,,,,None,0,[],[],,,,,B,1,2019_Jul_01_1949,PM,3.0.6,60.05889923911877,
,,,,,,PM_list_1.xlsx,PM_images_list_1.xlsx,cue words.xlsx,cue images.xlsx,recog_task.xlsx,recog_task_images1.xlsx,,Pictures/2309.jpg,l,0,NoHit,1,Images,,,,,,,,,,,,,,,,,,,,,,,,,,,0,1,1,1,,,,,,,,,,,,,,,,,0,50,50,50,,,,,,,,,,,,,,,,,,,,,,,None,0,[],[],,,,,B,1,2019_Jul_01_1949,PM,3.0.6,60.05889923911877,
,,,,,,PM_list_1.xlsx,PM_images_list_1.xlsx,cue words.xlsx,cue images.xlsx,recog_task.xlsx,recog_task_images1.xlsx,,Pictures/8192.jpg,h,6,NeuH1,1,Images,,,,,,,,,,,,,,,,,,,,,,,,,,,0,1,1,1,,,,,,,,,,,,,,,,,0,51,51,51,,,,,,,,,,,,,,,,,,,,,,,None,0,[],0,,,,,B,1,2019_Jul_01_1949,PM,3.0.6,60.05889923911877,
,,,,,,PM_list_1.xlsx,PM_images_list_1.xlsx,cue words.xlsx,cue images.xlsx,recog_task.xlsx,recog_task_images1.xlsx,,Pictures/9265.jpg,l,0,NoHit,1,Images,,,,,,,,,,,,,,,,,,,,,,,,,,,0,1,1,1,,,,,,,,,,,,,,,,,0,52,52,52,,,,,,,,,,,,,,,,,,,,,,,None,0,[],[],,,,,B,1,2019_Jul_01_1949,PM,3.0.6,60.05889923911877,
,,,,,,PM_list_1.xlsx,PM_images_list_1.xlsx,cue words.xlsx,cue images.xlsx,recog_task.xlsx,recog_task_images1.xlsx,,Pictures/1101.jpg,l,0,NoHit,1,Images,,,,,,,,,,,,,,,,,,,,,,,,,,,0,1,1,1,,,,,,,,,,,,,,,,,0,53,53,53,,,,,,,,,,,,,,,,,,,,,,,None,0,[],[],,,,,B,1,2019_Jul_01_1949,PM,3.0.6,60.05889923911877,
,,,,,,PM_list_1.xlsx,PM_images_list_1.xlsx,cue words.xlsx,cue images.xlsx,recog_task.xlsx,recog_task_images1.xlsx,,Pictures/9265.jpg,d,1,Hit,1,Images,,,,,,,,,,,,,,,,,,,,,,,,,,,0,1,1,1,,,,,,,,,,,,,,,,,0,54,54,54,,,,,,,,,,,,,,,,,,,,,,,None,0,[],[],,,,,B,1,2019_Jul_01_1949,PM,3.0.6,60.05889923911877,
,,,,,,PM_list_1.xlsx,PM_images_list_1.xlsx,cue words.xlsx,cue images.xlsx,recog_task.xlsx,recog_task_images1.xlsx,,Pictures/9832.jpg,l,0,NoHit,1,Images,,,,,,,,,,,,,,,,,,,,,,,,,,,0,1,1,1,,,,,,,,,,,,,,,,,0,55,55,55,,,,,,,,,,,,,,,,,,,,,,,None,0,[],[],,,,,B,1,2019_Jul_01_1949,PM,3.0.6,60.05889923911877,
,,,,,,PM_list_1.xlsx,PM_images_list_1.xlsx,cue words.xlsx,cue images.xlsx,recog_task.xlsx,recog_task_images1.xlsx,,Pictures/5833.jpg,l,0,NoHit,1,Images,,,,,,,,,,,,,,,,,,,,,,,,,,,0,1,1,1,,,,,,,,,,,,,,,,,0,56,56,56,,,,,,,,,,,,,,,,,,,,,,,None,0,[],[],,,,,B,1,2019_Jul_01_1949,PM,3.0.6,60.05889923911877,
,,,,,,PM_list_1.xlsx,PM_images_list_1.xlsx,cue words.xlsx,cue images.xlsx,recog_task.xlsx,recog_task_images1.xlsx,,Pictures/9904.jpg,l,0,NoHit,1,Images,,,,,,,,,,,,,,,,,,,,,,,,,,,0,1,1,1,,,,,,,,,,,,,,,,,0,57,57,57,,,,,,,,,,,,,,,,,,,,,,,None,0,[],[],,,,,B,1,2019_Jul_01_1949,PM,3.0.6,60.05889923911877,
,,,,,,PM_list_1.xlsx,PM_images_list_1.xlsx,cue words.xlsx,cue images.xlsx,recog_task.xlsx,recog_task_images1.xlsx,,Pictures/8501.jpg,l,0,NoHit,1,Images,,,,,,,,,,,,,,,,,,,,,,,,,,,0,1,1,1,,,,,,,,,,,,,,,,,0,58,58,58,,,,,,,,,,,,,,,,,,,,,,,None,0,[],[],,,,,B,1,2019_Jul_01_1949,PM,3.0.6,60.05889923911877,
,,,,,,PM_list_1.xlsx,PM_images_list_1.xlsx,cue words.xlsx,cue images.xlsx,recog_task.xlsx,recog_task_images1.xlsx,,Pictures/9904.jpg,d,1,Hit,1,Images,,,,,,,,,,,,,,,,,,,,,,,,,,,0,1,1,1,,,,,,,,,,,,,,,,,0,59,59,59,,,,,,,,,,,,,,,,,,,,,,,None,0,[],[],,,,,B,1,2019_Jul_01_1949,PM,3.0.6,60.05889923911877,
,,,,,,PM_list_1.xlsx,PM_images_list_1.xlsx,cue words.xlsx,cue images.xlsx,recog_task.xlsx,recog_task_images1.xlsx,,Pictures/2301.jpg,h,2,NegL1,1,Images,,,,,,,,,,,,,,,,,,,,,,,,,,,0,1,1,1,,,,,,,,,,,,,,,,,0,60,60,60,,,,,,,,,,,,,,,,,,,,,,,None,0,[],0,,,,,B,1,2019_Jul_01_1949,PM,3.0.6,60.05889923911877,
,,,,,,PM_list_1.xlsx,PM_images_list_1.xlsx,cue words.xlsx,cue images.xlsx,recog_task.xlsx,recog_task_images1.xlsx,,Pictures/1600.jpg,l,0,NoHit,1,Images,,,,,,,,,,,,,,,,,,,,,,,,,,,0,1,1,1,,,,,,,,,,,,,,,,,0,61,61,61,,,,,,,,,,,,,,,,,,,,,,,None,0,[],[],,,,,B,1,2019_Jul_01_1949,PM,3.0.6,60.05889923911877,
,,,,,,PM_list_1.xlsx,PM_images_list_1.xlsx,cue words.xlsx,cue images.xlsx,recog_task.xlsx,recog_task_images1.xlsx,,Pictures/1303.jpg,l,0,NoHit,1,Images,,,,,,,,,,,,,,,,,,,,,,,,,,,0,1,1,1,,,,,,,,,,,,,,,,,0,62,62,62,,,,,,,,,,,,,,,,,,,,,,,None,0,[],[],,,,,B,1,2019_Jul_01_1949,PM,3.0.6,60.05889923911877,
,,,,,,PM_list_1.xlsx,PM_images_list_1.xlsx,cue words.xlsx,cue images.xlsx,recog_task.xlsx,recog_task_images1.xlsx,,Pictures/1600.jpg,d,1,Hit,1,Images,,,,,,,,,,,,,,,,,,,,,,,,,,,0,1,1,1,,,,,,,,,,,,,,,,,0,63,63,63,,,,,,,,,,,,,,,,,,,,,,,None,0,[],[],,,,,B,1,2019_Jul_01_1949,PM,3.0.6,60.05889923911877,
,,,,,,PM_list_1.xlsx,PM_images_list_1.xlsx,cue words.xlsx,cue images.xlsx,recog_task.xlsx,recog_task_images1.xlsx,,Pictures/6200.jpg,l,0,NoHit,1,Images,,,,,,,,,,,,,,,,,,,,,,,,,,,0,1,1,1,,,,,,,,,,,,,,,,,0,64,64,64,,,,,,,,,,,,,,,,,,,,,,,None,0,[],[],,,,,B,1,2019_Jul_01_1949,PM,3.0.6,60.05889923911877,
,,,,,,PM_list_1.xlsx,PM_images_list_1.xlsx,cue words.xlsx,cue images.xlsx,recog_task.xlsx,recog_task_images1.xlsx,,Pictures/1321.jpg,l,0,NoHit,1,Images,,,,,,,,,,,,,,,,,,,,,,,,,,,0,1,1,1,,,,,,,,,,,,,,,,,0,65,65,65,,,,,,,,,,,,,,,,,,,,,,,None,0,[],[],,,,,B,1,2019_Jul_01_1949,PM,3.0.6,60.05889923911877,
,,,,,,PM_list_1.xlsx,PM_images_list_1.xlsx,cue words.xlsx,cue images.xlsx,recog_task.xlsx,recog_task_images1.xlsx,,Pictures/6200.jpg,d,1,Hit,1,Images,,,,,,,,,,,,,,,,,,,,,,,,,,,0,1,1,1,,,,,,,,,,,,,,,,,0,66,66,66,,,,,,,,,,,,,,,,,,,,,,,None,0,[],[],,,,,B,1,2019_Jul_01_1949,PM,3.0.6,60.05889923911877,
,,,,,,PM_list_1.xlsx,PM_images_list_1.xlsx,cue words.xlsx,cue images.xlsx,recog_task.xlsx,recog_task_images1.xlsx,,Pictures/2456.jpg,l,0,NoHit,1,Images,,,,,,,,,,,,,,,,,,,,,,,,,,,0,1,1,1,,,,,,,,,,,,,,,,,0,67,67,67,,,,,,,,,,,,,,,,,,,,,,,None,0,[],[],,,,,B,1,2019_Jul_01_1949,PM,3.0.6,60.05889923911877,
,,,,,,PM_list_1.xlsx,PM_images_list_1.xlsx,cue words.xlsx,cue images.xlsx,recog_task.xlsx,recog_task_images1.xlsx,,Pictures/9400.jpg,l,0,NoHit,1,Images,,,,,,,,,,,,,,,,,,,,,,,,,,,0,1,1,1,,,,,,,,,,,,,,,,,0,68,68,68,,,,,,,,,,,,,,,,,,,,,,,None,0,[],[],,,,,B,1,2019_Jul_01_1949,PM,3.0.6,60.05889923911877,
,,,,,,PM_list_1.xlsx,PM_images_list_1.xlsx,cue words.xlsx,cue images.xlsx,recog_task.xlsx,recog_task_images1.xlsx,,Pictures/7380.jpg,l,0,NoHit,1,Images,,,,,,,,,,,,,,,,,,,,,,,,,,,0,1,1,1,,,,,,,,,,,,,,,,,0,69,69,69,,,,,,,,,,,,,,,,,,,,,,,None,0,[],[],,,,,B,1,2019_Jul_01_1949,PM,3.0.6,60.05889923911877,
,,,,,,PM_list_1.xlsx,PM_images_list_1.xlsx,cue words.xlsx,cue images.xlsx,recog_task.xlsx,recog_task_images1.xlsx,,Pictures/8192.jpg,h,6,NeuH1,1,Images,,,,,,,,,,,,,,,,,,,,,,,,,,,0,1,1,1,,,,,,,,,,,,,,,,,0,70,70,70,,,,,,,,,,,,,,,,,,,,,,,None,0,[],0,,,,,B,1,2019_Jul_01_1949,PM,3.0.6,60.05889923911877,
,,,,,,PM_list_1.xlsx,PM_images_list_1.xlsx,cue words.xlsx,cue images.xlsx,recog_task.xlsx,recog_task_images1.xlsx,,Pictures/7380.jpg,d,1,Hit,1,Images,,,,,,,,,,,,,,,,,,,,,,,,,,,0,1,1,1,,,,,,,,,,,,,,,,,0,71,71,71,,,,,,,,,,,,,,,,,,,,,,,None,0,[],[],,,,,B,1,2019_Jul_01_1949,PM,3.0.6,60.05889923911877,
,,,,,,PM_list_1.xlsx,PM_images_list_1.xlsx,cue words.xlsx,cue images.xlsx,recog_task.xlsx,recog_task_images1.xlsx,,Pictures/2341.jpg,l,0,NoHit,1,Images,,,,,,,,,,,,,,,,,,,,,,,,,,,0,1,1,1,,,,,,,,,,,,,,,,,0,72,72,72,,,,,,,,,,,,,,,,,,,,,,,None,0,[],[],,,,,B,1,2019_Jul_01_1949,PM,3.0.6,60.05889923911877,
,,,,,,PM_list_1.xlsx,PM_images_list_1.xlsx,cue words.xlsx,cue images.xlsx,recog_task.xlsx,recog_task_images1.xlsx,,Pictures/3103.jpg,l,0,NoHit,1,Images,,,,,,,,,,,,,,,,,,,,,,,,,,,0,1,1,1,,,,,,,,,,,,,,,,,0,73,73,73,,,,,,,,,,,,,,,,,,,,,,,None,0,[],[],,,,,B,1,2019_Jul_01_1949,PM,3.0.6,60.05889923911877,
,,,,,,PM_list_1.xlsx,PM_images_list_1.xlsx,cue words.xlsx,cue images.xlsx,recog_task.xlsx,recog_task_images1.xlsx,,Pictures/6213.jpg,l,0,NoHit,1,Images,,,,,,,,,,,,,,,,,,,,,,,,,,,0,1,1,1,,,,,,,,,,,,,,,,,0,74,74,74,,,,,,,,,,,,,,,,,,,,,,,None,0,[],[],,,,,B,1,2019_Jul_01_1949,PM,3.0.6,60.05889923911877,
,,,,,,PM_list_1.xlsx,PM_images_list_1.xlsx,cue words.xlsx,cue images.xlsx,recog_task.xlsx,recog_task_images1.xlsx,,Pictures/1321.jpg,l,0,NoHit,1,Images,,,,,,,,,,,,,,,,,,,,,,,,,,,0,1,1,1,,,,,,,,,,,,,,,,,0,75,75,75,,,,,,,,,,,,,,,,,,,,,,,None,0,[],[],,,,,B,1,2019_Jul_01_1949,PM,3.0.6,60.05889923911877,
,,,,,,PM_list_1.xlsx,PM_images_list_1.xlsx,cue words.xlsx,cue images.xlsx,recog_task.xlsx,recog_task_images1.xlsx,,Pictures/6213.jpg,d,1,Hit,1,Images,,,,,,,,,,,,,,,,,,,,,,,,,,,0,1,1,1,,,,,,,,,,,,,,,,,0,76,76,76,,,,,,,,,,,,,,,,,,,,,,,None,0,[],[],,,,,B,1,2019_Jul_01_1949,PM,3.0.6,60.05889923911877,
,,,,,,PM_list_1.xlsx,PM_images_list_1.xlsx,cue words.xlsx,cue images.xlsx,recog_task.xlsx,recog_task_images1.xlsx,,Pictures/2456.jpg,l,0,NoHit,1,Images,,,,,,,,,,,,,,,,,,,,,,,,,,,0,1,1,1,,,,,,,,,,,,,,,,,0,77,77,77,,,,,,,,,,,,,,,,,,,,,,,None,0,[],[],,,,,B,1,2019_Jul_01_1949,PM,3.0.6,60.05889923911877,
,,,,,,PM_list_1.xlsx,PM_images_list_1.xlsx,cue words.xlsx,cue images.xlsx,recog_task.xlsx,recog_task_images1.xlsx,,Pictures/9911.jpg,l,0,NoHit,1,Images,,,,,,,,,,,,,,,,,,,,,,,,,,,0,1,1,1,,,,,,,,,,,,,,,,,0,78,78,78,,,,,,,,,,,,,,,,,,,,,,,None,0,[],[],,,,,B,1,2019_Jul_01_1949,PM,3.0.6,60.05889923911877,
,,,,,,PM_list_1.xlsx,PM_images_list_1.xlsx,cue words.xlsx,cue images.xlsx,recog_task.xlsx,recog_task_images1.xlsx,,Pictures/8034.jpg,l,0,NoHit,1,Images,,,,,,,,,,,,,,,,,,,,,,,,,,,0,1,1,1,,,,,,,,,,,,,,,,,0,79,79,79,,,,,,,,,,,,,,,,,,,,,,,None,0,[],[],,,,,B,1,2019_Jul_01_1949,PM,3.0.6,60.05889923911877,
,,,,,,PM_list_1.xlsx,PM_images_list_1.xlsx,cue words.xlsx,cue images.xlsx,recog_task.xlsx,recog_task_images1.xlsx,,Pictures/2410.jpg,l,0,NoHit,1,Images,,,,,,,,,,,,,,,,,,,,,,,,,,,0,1,1,1,,,,,,,,,,,,,,,,,0,80,80,80,,,,,,,,,,,,,,,,,,,,,,,None,0,[],[],,,,,B,1,2019_Jul_01_1949,PM,3.0.6,60.05889923911877,
,,,,,,PM_list_1.xlsx,PM_images_list_1.xlsx,cue words.xlsx,cue images.xlsx,recog_task.xlsx,recog_task_images1.xlsx,,Pictures/8034.jpg,d,1,Hit,1,Images,,,,,,,,,,,,,,,,,,,,,,,,,,,0,1,1,1,,,,,,,,,,,,,,,,,0,81,81,81,,,,,,,,,,,,,,,,,,,,,,,None,0,[],[],,,,,B,1,2019_Jul_01_1949,PM,3.0.6,60.05889923911877,
,,,,,,PM_list_1.xlsx,PM_images_list_1.xlsx,cue words.xlsx,cue images.xlsx,recog_task.xlsx,recog_task_images1.xlsx,,Pictures/2151.jpg,h,4,PosL1,1,Images,,,,,,,,,,,,,,,,,,,,,,,,,,,0,1,1,1,,,,,,,,,,,,,,,,,0,82,82,82,,,,,,,,,,,,,,,,,,,,,,,None,0,[],0,,,,,B,1,2019_Jul_01_1949,PM,3.0.6,60.05889923911877,
,,,,,,PM_list_1.xlsx,PM_images_list_1.xlsx,cue words.xlsx,cue images.xlsx,recog_task.xlsx,recog_task_images1.xlsx,,Pictures/1931.jpg,l,0,NoHit,1,Images,,,,,,,,,,,,,,,,,,,,,,,,,,,0,1,1,1,,,,,,,,,,,,,,,,,0,83,83,83,,,,,,,,,,,,,,,,,,,,,,,None,0,[],[],,,,,B,1,2019_Jul_01_1949,PM,3.0.6,60.05889923911877,
,,,,,,PM_list_1.xlsx,PM_images_list_1.xlsx,cue words.xlsx,cue images.xlsx,recog_task.xlsx,recog_task_images1.xlsx,,Pictures/7830.jpg,l,0,NoHit,1,Images,,,,,,,,,,,,,,,,,,,,,,,,,,,0,1,1,1,,,,,,,,,,,,,,,,,0,84,84,84,,,,,,,,,,,,,,,,,,,,,,,None,0,[],[],,,,,B,1,2019_Jul_01_1949,PM,3.0.6,60.05889923911877,
,,,,,,PM_list_1.xlsx,PM_images_list_1.xlsx,cue words.xlsx,cue images.xlsx,recog_task.xlsx,recog_task_images1.xlsx,,Pictures/1931.jpg,d,1,Hit,1,Images,,,,,,,,,,,,,,,,,,,,,,,,,,,0,1,1,1,,,,,,,,,,,,,,,,,0,85,85,85,,,,,,,,,,,,,,,,,,,,,,,None,0,[],[],,,,,B,1,2019_Jul_01_1949,PM,3.0.6,60.05889923911877,
,,,,,,PM_list_1.xlsx,PM_images_list_1.xlsx,cue words.xlsx,cue images.xlsx,recog_task.xlsx,recog_task_images1.xlsx,,Pictures/7650.jpg,l,0,NoHit,1,Images,,,,,,,,,,,,,,,,,,,,,,,,,,,0,1,1,1,,,,,,,,,,,,,,,,,0,86,86,86,,,,,,,,,,,,,,,,,,,,,,,None,0,[],[],,,,,B,1,2019_Jul_01_1949,PM,3.0.6,60.05889923911877,
,,,,,,PM_list_1.xlsx,PM_images_list_1.xlsx,cue words.xlsx,cue images.xlsx,recog_task.xlsx,recog_task_images1.xlsx,,Pictures/5395.jpg,l,0,NoHit,1,Images,,,,,,,,,,,,,,,,,,,,,,,,,,,0,1,1,1,,,,,,,,,,,,,,,,,0,87,87,87,,,,,,,,,,,,,,,,,,,,,,,None,0,[],[],,,,,B,1,2019_Jul_01_1949,PM,3.0.6,60.05889923911877,
,,,,,,PM_list_1.xlsx,PM_images_list_1.xlsx,cue words.xlsx,cue images.xlsx,recog_task.xlsx,recog_task_images1.xlsx,,Pictures/2520.jpg,l,0,NoHit,1,Images,,,,,,,,,,,,,,,,,,,,,,,,,,,0,1,1,1,,,,,,,,,,,,,,,,,0,88,88,88,,,,,,,,,,,,,,,,,,,,,,,None,0,[],[],,,,,B,1,2019_Jul_01_1949,PM,3.0.6,60.05889923911877,
,,,,,,PM_list_1.xlsx,PM_images_list_1.xlsx,cue words.xlsx,cue images.xlsx,recog_task.xlsx,recog_task_images1.xlsx,,Pictures/5395.jpg,d,1,Hit,1,Images,,,,,,,,,,,,,,,,,,,,,,,,,,,0,1,1,1,,,,,,,,,,,,,,,,,0,89,89,89,,,,,,,,,,,,,,,,,,,,,,,None,0,[],[],,,,,B,1,2019_Jul_01_1949,PM,3.0.6,60.05889923911877,
,,,,,,PM_list_1.xlsx,PM_images_list_1.xlsx,cue words.xlsx,cue images.xlsx,recog_task.xlsx,recog_task_images1.xlsx,,Pictures/8090.jpg,l,0,NoHit,1,Images,,,,,,,,,,,,,,,,,,,,,,,,,,,0,1,1,1,,,,,,,,,,,,,,,,,0,90,90,90,,,,,,,,,,,,,,,,,,,,,,,None,0,[],[],,,,,B,1,2019_Jul_01_1949,PM,3.0.6,60.05889923911877,
,,,,,,PM_list_1.xlsx,PM_images_list_1.xlsx,cue words.xlsx,cue images.xlsx,recog_task.xlsx,recog_task_images1.xlsx,,Pictures/6910.jpg,l,0,NoHit,1,Images,,,,,,,,,,,,,,,,,,,,,,,,,,,0,1,1,1,,,,,,,,,,,,,,,,,0,91,91,91,,,,,,,,,,,,,,,,,,,,,,,None,0,[],[],,,,,B,1,2019_Jul_01_1949,PM,3.0.6,60.05889923911877,
,,,,,,PM_list_1.xlsx,PM_images_list_1.xlsx,cue words.xlsx,cue images.xlsx,recog_task.xlsx,recog_task_images1.xlsx,,Pictures/2274.jpg,l,0,NoHit,1,Images,,,,,,,,,,,,,,,,,,,,,,,,,,,0,1,1,1,,,,,,,,,,,,,,,,,0,92,92,92,,,,,,,,,,,,,,,,,,,,,,,None,0,[],[],,,,,B,1,2019_Jul_01_1949,PM,3.0.6,60.05889923911877,
,,,,,,PM_list_1.xlsx,PM_images_list_1.xlsx,cue words.xlsx,cue images.xlsx,recog_task.xlsx,recog_task_images1.xlsx,,Pictures/2301.jpg,h,2,NeGL1,1,Images,,,,,,,,,,,,,,,,,,,,,,,,,,,0,1,1,1,,,,,,,,,,,,,,,,,0,93,93,93,,,,,,,,,,,,,,,,,,,,,,,None,0,[],0,,,,,B,1,2019_Jul_01_1949,PM,3.0.6,60.05889923911877,
,,,,,,PM_list_1.xlsx,PM_images_list_1.xlsx,cue words.xlsx,cue images.xlsx,recog_task.xlsx,recog_task_images1.xlsx,,Pictures/2274.jpg,d,1,Hit,1,Images,,,,,,,,,,,,,,,,,,,,,,,,,,,0,1,1,1,,,,,,,,,,,,,,,,,0,94,94,94,,,,,,,,,,,,,,,,,,,,,,,None,0,[],[],,,,,B,1,2019_Jul_01_1949,PM,3.0.6,60.05889923911877,
,,,,,,PM_list_1.xlsx,PM_images_list_1.xlsx,cue words.xlsx,cue images.xlsx,recog_task.xlsx,recog_task_images1.xlsx,,Pictures/2688.jpg,l,0,NoHit,1,Images,,,,,,,,,,,,,,,,,,,,,,,,,,,0,1,1,1,,,,,,,,,,,,,,,,,0,95,95,95,,,,,,,,,,,,,,,,,,,,,,,None,0,[],[],,,,,B,1,2019_Jul_01_1949,PM,3.0.6,60.05889923911877,
,,,,,,PM_list_1.xlsx,PM_images_list_1.xlsx,cue words.xlsx,cue images.xlsx,recog_task.xlsx,recog_task_images1.xlsx,,Pictures/5260.jpg,l,0,NoHit,1,Images,,,,,,,,,,,,,,,,,,,,,,,,,,,0,1,1,1,,,,,,,,,,,,,,,,,0,96,96,96,,,,,,,,,,,,,,,,,,,,,,,None,0,[],[],,,,,B,1,2019_Jul_01_1949,PM,3.0.6,60.05889923911877,
,,,,,,PM_list_1.xlsx,PM_images_list_1.xlsx,cue words.xlsx,cue images.xlsx,recog_task.xlsx,recog_task_images1.xlsx,,Pictures/8501.jpg,l,0,NoHit,1,Images,,,,,,,,,,,,,,,,,,,,,,,,,,,0,1,1,1,,,,,,,,,,,,,,,,,0,97,97,97,,,,,,,,,,,,,,,,,,,,,,,None,0,[],[],,,,,B,1,2019_Jul_01_1949,PM,3.0.6,60.05889923911877,
,,,,,,PM_list_1.xlsx,PM_images_list_1.xlsx,cue words.xlsx,cue images.xlsx,recog_task.xlsx,recog_task_images1.xlsx,,Pictures/5260.jpg,d,1,Hit,1,Images,,,,,,,,,,,,,,,,,,,,,,,,,,,0,1,1,1,,,,,,,,,,,,,,,,,0,98,98,98,,,,,,,,,,,,,,,,,,,,,,,None,0,[],[],,,,,B,1,2019_Jul_01_1949,PM,3.0.6,60.05889923911877,
,,,,,,PM_list_1.xlsx,PM_images_list_1.xlsx,cue words.xlsx,cue images.xlsx,recog_task.xlsx,recog_task_images1.xlsx,,Pictures/5460.jpg,l,0,NoHit,1,Images,,,,,,,,,,,,,,,,,,,,,,,,,,,0,1,1,1,,,,,,,,,,,,,,,,,0,99,99,99,,,,,,,,,,,,,,,,,,,,,,,None,0,[],[],,,,,B,1,2019_Jul_01_1949,PM,3.0.6,60.05889923911877,
,,,,,,PM_list_1.xlsx,PM_images_list_1.xlsx,cue words.xlsx,cue images.xlsx,recog_task.xlsx,recog_task_images1.xlsx,,Pictures/8065.jpg,l,0,NoHit,1,Images,,,,,,,,,,,,,,,,,,,,,,,,,,,0,1,1,1,,,,,,,,,,,,,,,,,0,100,100,100,,,,,,,,,,,,,,,,,,,,,,,None,0,[],[],,,,,B,1,2019_Jul_01_1949,PM,3.0.6,60.05889923911877,
,,,,,,PM_list_1.xlsx,PM_images_list_1.xlsx,cue words.xlsx,cue images.xlsx,recog_task.xlsx,recog_task_images1.xlsx,,Pictures/5460.jpg,d,1,Hit,1,Images,,,,,,,,,,,,,,,,,,,,,,,,,,,0,1,1,1,,,,,,,,,,,,,,,,,0,101,101,101,,,,,,,,,,,,,,,,,,,,,,,None,0,[],[],,,,,B,1,2019_Jul_01_1949,PM,3.0.6,60.05889923911877,
,,,,,,PM_list_1.xlsx,PM_images_list_1.xlsx,cue words.xlsx,cue images.xlsx,recog_task.xlsx,recog_task_images1.xlsx,,Pictures/5831.jpg,l,0,NoHit,1,Images,,,,,,,,,,,,,,,,,,,,,,,,,,,0,1,1,1,,,,,,,,,,,,,,,,,0,102,102,102,,,,,,,,,,,,,,,,,,,,,,,None,0,[],[],,,,,B,1,2019_Jul_01_1949,PM,3.0.6,60.05889923911877,
,,,,,,PM_list_1.xlsx,PM_images_list_1.xlsx,cue words.xlsx,cue images.xlsx,recog_task.xlsx,recog_task_images1.xlsx,,Pictures/1022.jpg,l,0,NoHit,1,Images,,,,,,,,,,,,,,,,,,,,,,,,,,,0,1,1,1,,,,,,,,,,,,,,,,,0,103,103,103,,,,,,,,,,,,,,,,,,,,,,,None,0,[],[],,,,,B,1,2019_Jul_01_1949,PM,3.0.6,60.05889923911877,
,,,,,,PM_list_1.xlsx,PM_images_list_1.xlsx,cue words.xlsx,cue images.xlsx,recog_task.xlsx,recog_task_images1.xlsx,,Pictures/5831.jpg,d,1,Hit,1,Images,,,,,,,,,,,,,,,,,,,,,,,,,,,0,1,1,1,,,,,,,,,,,,,,,,,0,104,104,104,,,,,,,,,,,,,,,,,,,,,,,None,0,[],[],,,,,B,1,2019_Jul_01_1949,PM,3.0.6,60.05889923911877,
,,,,,,PM_list_1.xlsx,PM_images_list_1.xlsx,cue words.xlsx,cue images.xlsx,recog_task.xlsx,recog_task_images1.xlsx,,Pictures/7405.jpg,h,7,PosH1,1,Images,,,,,,,,,,,,,,,,,,,,,,,,,,,0,1,1,1,,,,,,,,,,,,,,,,,0,105,105,105,,,,,,,,,,,,,,,,,,,,,,,None,0,[],0,,,,,B,1,2019_Jul_01_1949,PM,3.0.6,60.05889923911877,
,,,,,,PM_list_1.xlsx,PM_images_list_1.xlsx,cue words.xlsx,cue images.xlsx,recog_task.xlsx,recog_task_images1.xlsx,,Pictures/2211.jpg,l,0,NoHit,1,Images,,,,,,,,,,,,,,,,,,,,,,,,,,,0,1,1,1,,,,,,,,,,,,,,,,,0,106,106,106,,,,,,,,,,,,,,,,,,,,,,,None,0,[],[],,,,,B,1,2019_Jul_01_1949,PM,3.0.6,60.05889923911877,
,,,,,,PM_list_1.xlsx,PM_images_list_1.xlsx,cue words.xlsx,cue images.xlsx,recog_task.xlsx,recog_task_images1.xlsx,,Pictures/9330.jpg,l,0,NoHit,1,Images,,,,,,,,,,,,,,,,,,,,,,,,,,,0,1,1,1,,,,,,,,,,,,,,,,,0,107,107,107,,,,,,,,,,,,,,,,,,,,,,,None,0,[],[],,,,,B,1,2019_Jul_01_1949,PM,3.0.6,60.05889923911877,
,,,,,,PM_list_1.xlsx,PM_images_list_1.xlsx,cue words.xlsx,cue images.xlsx,recog_task.xlsx,recog_task_images1.xlsx,,Pictures/6021.jpg,l,0,NoHit,1,Images,,,,,,,,,,,,,,,,,,,,,,,,,,,0,1,1,1,,,,,,,,,,,,,,,,,0,108,108,108,,,,,,,,,,,,,,,,,,,,,,,None,0,[],[],,,,,B,1,2019_Jul_01_1949,PM,3.0.6,60.05889923911877,
,,,,,,PM_list_1.xlsx,PM_images_list_1.xlsx,cue words.xlsx,cue images.xlsx,recog_task.xlsx,recog_task_images1.xlsx,,Pictures/9330.jpg,d,1,Hit,1,Images,,,,,,,,,,,,,,,,,,,,,,,,,,,0,1,1,1,,,,,,,,,,,,,,,,,0,109,109,109,,,,,,,,,,,,,,,,,,,,,,,None,0,[],[],,,,,B,1,2019_Jul_01_1949,PM,3.0.6,60.05889923911877,
,,,,,,PM_list_1.xlsx,PM_images_list_1.xlsx,cue words.xlsx,cue images.xlsx,recog_task.xlsx,recog_task_images1.xlsx,,Pictures/7650.jpg,l,0,NoHit,1,Images,,,,,,,,,,,,,,,,,,,,,,,,,,,0,1,1,1,,,,,,,,,,,,,,,,,0,110,110,110,,,,,,,,,,,,,,,,,,,,,,,None,0,[],[],,,,,B,1,2019_Jul_01_1949,PM,3.0.6,60.05889923911877,
,,,,,,PM_list_1.xlsx,PM_images_list_1.xlsx,cue words.xlsx,cue images.xlsx,recog_task.xlsx,recog_task_images1.xlsx,,Pictures/1313.jpg,l,0,NoHit,1,Images,,,,,,,,,,,,,,,,,,,,,,,,,,,0,1,1,1,,,,,,,,,,,,,,,,,0,111,111,111,,,,,,,,,,,,,,,,,,,,,,,None,0,[],[],,,,,B,1,2019_Jul_01_1949,PM,3.0.6,60.05889923911877,
,,,,,,PM_list_1.xlsx,PM_images_list_1.xlsx,cue words.xlsx,cue images.xlsx,recog_task.xlsx,recog_task_images1.xlsx,,Pictures/9400.jpg,l,0,NoHit,1,Images,,,,,,,,,,,,,,,,,,,,,,,,,,,0,1,1,1,,,,,,,,,,,,,,,,,0,112,112,112,,,,,,,,,,,,,,,,,,,,,,,None,0,[],[],,,,,B,1,2019_Jul_01_1949,PM,3.0.6,60.05889923911877,
,,,,,,PM_list_1.xlsx,PM_images_list_1.xlsx,cue words.xlsx,cue images.xlsx,recog_task.xlsx,recog_task_images1.xlsx,,Pictures/1313.jpg,d,1,Hit,1,Images,,,,,,,,,,,,,,,,,,,,,,,,,,,0,1,1,1,,,,,,,,,,,,,,,,,0,113,113,113,,,,,,,,,,,,,,,,,,,,,,,None,0,[],[],,,,,B,1,2019_Jul_01_1949,PM,3.0.6,60.05889923911877,
,,,,,,PM_list_1.xlsx,PM_images_list_1.xlsx,cue words.xlsx,cue images.xlsx,recog_task.xlsx,recog_task_images1.xlsx,,Pictures/5920.jpg,l,0,NoHit,1,Images,,,,,,,,,,,,,,,,,,,,,,,,,,,0,1,1,1,,,,,,,,,,,,,,,,,0,114,114,114,,,,,,,,,,,,,,,,,,,,,,,None,0,[],[],,,,,B,1,2019_Jul_01_1949,PM,3.0.6,60.05889923911877,
,,,,,,PM_list_1.xlsx,PM_images_list_1.xlsx,cue words.xlsx,cue images.xlsx,recog_task.xlsx,recog_task_images1.xlsx,,Pictures/2222.jpg,l,0,NoHit,1,Images,,,,,,,,,,,,,,,,,,,,,,,,,,,0,1,1,1,,,,,,,,,,,,,,,,,0,115,115,115,,,,,,,,,,,,,,,,,,,,,,,None,0,[],[],,,,,B,1,2019_Jul_01_1949,PM,3.0.6,60.05889923911877,
,,,,,,PM_list_1.xlsx,PM_images_list_1.xlsx,cue words.xlsx,cue images.xlsx,recog_task.xlsx,recog_task_images1.xlsx,,Pictures/1935.jpg,l,0,NoHit,1,Images,,,,,,,,,,,,,,,,,,,,,,,,,,,0,1,1,1,,,,,,,,,,,,,,,,,0,116,116,116,,,,,,,,,,,,,,,,,,,,,,,None,0,[],[],,,,,B,1,2019_Jul_01_1949,PM,3.0.6,60.05889923911877,
,,,,,,PM_list_1.xlsx,PM_images_list_1.xlsx,cue words.xlsx,cue images.xlsx,recog_task.xlsx,recog_task_images1.xlsx,,Pictures/7042.jpg,h,3,NeuL1,1,Images,,,,,,,,,,,,,,,,,,,,,,,,,,,0,1,1,1,,,,,,,,,,,,,,,,,0,117,117,117,,,,,,,,,,,,,,,,,,,,,,,None,0,[],0,,,,,B,1,2019_Jul_01_1949,PM,3.0.6,60.05889923911877,
,,,,,,PM_list_1.xlsx,PM_images_list_1.xlsx,cue words.xlsx,cue images.xlsx,recog_task.xlsx,recog_task_images1.xlsx,,Pictures/1935.jpg,d,1,Hit,1,Images,,,,,,,,,,,,,,,,,,,,,,,,,,,0,1,1,1,,,,,,,,,,,,,,,,,0,118,118,118,,,,,,,,,,,,,,,,,,,,,,,None,0,[],[],,,,,B,1,2019_Jul_01_1949,PM,3.0.6,60.05889923911877,
,,,,,,PM_list_1.xlsx,PM_images_list_1.xlsx,cue words.xlsx,cue images.xlsx,recog_task.xlsx,recog_task_images1.xlsx,,Pictures/2410.jpg,l,0,NoHit,1,Images,,,,,,,,,,,,,,,,,,,,,,,,,,,0,1,1,1,,,,,,,,,,,,,,,,,0,119,119,119,,,,,,,,,,,,,,,,,,,,,,,None,0,[],[],,,,,B,1,2019_Jul_01_1949,PM,3.0.6,60.05889923911877,
,,,,,,PM_list_1.xlsx,PM_images_list_1.xlsx,cue words.xlsx,cue images.xlsx,recog_task.xlsx,recog_task_images1.xlsx,,Pictures/2720.jpg,l,0,NoHit,1,Images,,,,,,,,,,,,,,,,,,,,,,,,,,,0,1,1,1,,,,,,,,,,,,,,,,,0,120,120,120,,,,,,,,,,,,,,,,,,,,,,,None,0,[],[],,,,,B,1,2019_Jul_01_1949,PM,3.0.6,60.05889923911877,
,,,,,,PM_list_1.xlsx,PM_images_list_1.xlsx,cue words.xlsx,cue images.xlsx,recog_task.xlsx,recog_task_images1.xlsx,,Pictures/2590.jpg,l,0,NoHit,1,Images,,,,,,,,,,,,,,,,,,,,,,,,,,,0,1,1,1,,,,,,,,,,,,,,,,,0,121,121,121,,,,,,,,,,,,,,,,,,,,,,,None,0,[],[],,,,,B,1,2019_Jul_01_1949,PM,3.0.6,60.05889923911877,
,,,,,,PM_list_1.xlsx,PM_images_list_1.xlsx,cue words.xlsx,cue images.xlsx,recog_task.xlsx,recog_task_images1.xlsx,,Pictures/1122.jpg,l,0,NoHit,1,Images,,,,,,,,,,,,,,,,,,,,,,,,,,,0,1,1,1,,,,,,,,,,,,,,,,,0,122,122,122,,,,,,,,,,,,,,,,,,,,,,,None,0,[],[],,,,,B,1,2019_Jul_01_1949,PM,3.0.6,60.05889923911877,
,,,,,,PM_list_1.xlsx,PM_images_list_1.xlsx,cue words.xlsx,cue images.xlsx,recog_task.xlsx,recog_task_images1.xlsx,,Pictures/2590.jpg,d,1,Hit,1,Images,,,,,,,,,,,,,,,,,,,,,,,,,,,0,1,1,1,,,,,,,,,,,,,,,,,0,123,123,123,,,,,,,,,,,,,,,,,,,,,,,None,0,[],[],,,,,B,1,2019_Jul_01_1949,PM,3.0.6,60.05889923911877,
,,,,,,PM_list_1.xlsx,PM_images_list_1.xlsx,cue words.xlsx,cue images.xlsx,recog_task.xlsx,recog_task_images1.xlsx,,Pictures/5920.jpg,l,0,NoHit,1,Images,,,,,,,,,,,,,,,,,,,,,,,,,,,0,1,1,1,,,,,,,,,,,,,,,,,0,124,124,124,,,,,,,,,,,,,,,,,,,,,,,None,0,[],[],,,,,B,1,2019_Jul_01_1949,PM,3.0.6,60.05889923911877,
,,,,,,PM_list_1.xlsx,PM_images_list_1.xlsx,cue words.xlsx,cue images.xlsx,recog_task.xlsx,recog_task_images1.xlsx,,Pictures/2211.jpg,l,0,NoHit,1,Images,,,,,,,,,,,,,,,,,,,,,,,,,,,0,1,1,1,,,,,,,,,,,,,,,,,0,125,125,125,,,,,,,,,,,,,,,,,,,,,,,None,0,[],[],,,,,B,1,2019_Jul_01_1949,PM,3.0.6,60.05889923911877,
,,,,,,PM_list_1.xlsx,PM_images_list_1.xlsx,cue words.xlsx,cue images.xlsx,recog_task.xlsx,recog_task_images1.xlsx,,Pictures/9909.jpg,h,6,NegH1,1,Images,,,,,,,,,,,,,,,,,,,,,,,,,,,0,1,1,1,,,,,,,,,,,,,,,,,0,126,126,126,,,,,,,,,,,,,,,,,,,,,,,None,0,[],0,,,,,B,1,2019_Jul_01_1949,PM,3.0.6,60.05889923911877,
,,,,,,PM_list_1.xlsx,PM_images_list_1.xlsx,cue words.xlsx,cue images.xlsx,recog_task.xlsx,recog_task_images1.xlsx,,Pictures/6415.jpg,l,0,NoHit,1,Images,,,,,,,,,,,,,,,,,,,,,,,,,,,0,1,1,1,,,,,,,,,,,,,,,,,0,127,127,127,,,,,,,,,,,,,,,,,,,,,,,None,0,[],[],,,,,B,1,2019_Jul_01_1949,PM,3.0.6,60.05889923911877,
,,,,,,PM_list_1.xlsx,PM_images_list_1.xlsx,cue words.xlsx,cue images.xlsx,recog_task.xlsx,recog_task_images1.xlsx,,Pictures/1122.jpg,l,0,NoHit,1,Images,,,,,,,,,,,,,,,,,,,,,,,,,,,0,1,1,1,,,,,,,,,,,,,,,,,0,128,128,128,,,,,,,,,,,,,,,,,,,,,,,None,0,[],[],,,,,B,1,2019_Jul_01_1949,PM,3.0.6,60.05889923911877,
,,,,,,PM_list_1.xlsx,PM_images_list_1.xlsx,cue words.xlsx,cue images.xlsx,recog_task.xlsx,recog_task_images1.xlsx,,Pictures/6415.jpg,d,1,Hit,1,Images,,,,,,,,,,,,,,,,,,,,,,,,,,,0,1,1,1,,,,,,,,,,,,,,,,,0,129,129,129,,,,,,,,,,,,,,,,,,,,,,,None,0,[],[],,,,,B,1,2019_Jul_01_1949,PM,3.0.6,60.05889923911877,
